"ID" "item" "session" "res" "correct" "type" "trial" "RT" "score" "origin" "quality" "group" "twice"
"61316097" "guta1guta8" 0 0 0 "guta" "diff" 4117 1 "native" "good" 5 FALSE
"61316097" "guta8guta8" 0 0 1 "guta" "same" 3486 1 "native" "good" 5 FALSE
"61316097" "guta8guta1" 0 1 1 "guta" "diff" 4645 1 "native" "good" 5 FALSE
"61316097" "guta1guta1" 0 0 1 "guta" "same" 4404 1 "native" "good" 5 FALSE
"61316097" "lita1lita1" 0 0 1 "lita" "same" 4136 1 "native" "good" 5 FALSE
"61316097" "lita8lita8" 0 0 1 "lita" "same" 3830 1 "native" "good" 5 FALSE
"61316097" "lita1lita8" 0 1 1 "lita" "diff" 4360 1 "native" "good" 5 FALSE
"61316097" "lita8lita1" 0 1 1 "lita" "diff" 4712 1 "native" "good" 5 FALSE
"61316097" "guta8guta1" 1 1 1 "guta" "diff" 3984 1 "native" "good" 5 FALSE
"61316097" "guta1guta1" 1 0 1 "guta" "same" 3398 1 "native" "good" 5 FALSE
"61316097" "guta1guta8" 1 1 1 "guta" "diff" 3408 1 "native" "good" 5 FALSE
"61316097" "guta8guta8" 1 0 1 "guta" "same" 3546 1 "native" "good" 5 FALSE
"61316097" "lita8lita1" 1 1 1 "lita" "diff" 3949 1 "native" "good" 5 FALSE
"61316097" "lita1lita1" 1 0 1 "lita" "same" 3722 1 "native" "good" 5 FALSE
"61316097" "lita8lita8" 1 0 1 "lita" "same" 3434 1 "native" "good" 5 FALSE
"61316097" "lita1lita8" 1 1 1 "lita" "diff" 4163 1 "native" "good" 5 FALSE
"6f7f2d45" "guta8guta8" 0 0 1 "guta" "same" 3494 1 "native" "good" 5 FALSE
"6f7f2d45" "guta1guta8" 0 1 1 "guta" "diff" 8737 1 "native" "good" 5 FALSE
"6f7f2d45" "guta1guta1" 0 0 1 "guta" "same" 3762 1 "native" "good" 5 FALSE
"6f7f2d45" "guta8guta1" 0 0 0 "guta" "diff" 4614 1 "native" "good" 5 FALSE
"6f7f2d45" "lita1lita8" 0 0 0 "lita" "diff" 12087 1 "native" "good" 5 FALSE
"6f7f2d45" "lita8lita8" 0 0 1 "lita" "same" 3971 1 "native" "good" 5 FALSE
"6f7f2d45" "lita1lita1" 0 0 1 "lita" "same" 3755 1 "native" "good" 5 FALSE
"6f7f2d45" "lita8lita1" 0 0 0 "lita" "diff" 5978 1 "native" "good" 5 FALSE
"6f7f2d45" "guta8guta8" 1 0 1 "guta" "same" 4405 1 "native" "good" 5 FALSE
"6f7f2d45" "guta8guta1" 1 1 1 "guta" "diff" 2891 1 "native" "good" 5 FALSE
"6f7f2d45" "guta1guta8" 1 1 1 "guta" "diff" 3276 1 "native" "good" 5 FALSE
"6f7f2d45" "guta1guta1" 1 0 1 "guta" "same" 3140 1 "native" "good" 5 FALSE
"6f7f2d45" "lita8lita8" 1 0 1 "lita" "same" 3097 1 "native" "good" 5 FALSE
"6f7f2d45" "lita1lita8" 1 1 1 "lita" "diff" 2971 1 "native" "good" 5 FALSE
"6f7f2d45" "lita8lita1" 1 1 1 "lita" "diff" 3654 1 "native" "good" 5 FALSE
"6f7f2d45" "lita1lita1" 1 0 1 "lita" "same" 3013 1 "native" "good" 5 FALSE
"a9b52603" "guta1guta8" 0 1 1 "guta" "diff" 4119 1 "native" "good" 5 FALSE
"a9b52603" "guta8guta8" 0 0 1 "guta" "same" 4309 1 "native" "good" 5 FALSE
"a9b52603" "guta8guta1" 0 1 1 "guta" "diff" 4685 1 "native" "good" 5 FALSE
"a9b52603" "guta1guta1" 0 0 1 "guta" "same" 4764 1 "native" "good" 5 FALSE
"a9b52603" "lita8lita1" 0 1 1 "lita" "diff" 4770 1 "native" "good" 5 FALSE
"a9b52603" "lita1lita1" 0 0 1 "lita" "same" 4457 1 "native" "good" 5 FALSE
"a9b52603" "lita8lita8" 0 1 0 "lita" "same" 4208 1 "native" "good" 5 FALSE
"a9b52603" "lita1lita8" 0 1 1 "lita" "diff" 4379 1 "native" "good" 5 FALSE
"a9b52603" "guta1guta1" 1 0 1 "guta" "same" 3087 1 "native" "good" 5 FALSE
"a9b52603" "guta8guta1" 1 1 1 "guta" "diff" 3254 1 "native" "good" 5 FALSE
"a9b52603" "guta1guta8" 1 1 1 "guta" "diff" 4365 1 "native" "good" 5 FALSE
"a9b52603" "guta8guta8" 1 0 1 "guta" "same" 3997 1 "native" "good" 5 FALSE
"a9b52603" "lita1lita1" 1 0 1 "lita" "same" 3938 1 "native" "good" 5 FALSE
"a9b52603" "lita8lita1" 1 1 1 "lita" "diff" 3216 1 "native" "good" 5 FALSE
"a9b52603" "lita1lita8" 1 1 1 "lita" "diff" 2968 1 "native" "good" 5 FALSE
"a9b52603" "lita8lita8" 1 0 1 "lita" "same" 2962 1 "native" "good" 5 FALSE
"ad8f3df7" "guta8guta1" 0 1 1 "guta" "diff" 6950 1 "native" "good" 5 FALSE
"ad8f3df7" "guta1guta1" 0 0 1 "guta" "same" 5616 1 "native" "good" 5 FALSE
"ad8f3df7" "guta1guta8" 0 1 1 "guta" "diff" 7763 1 "native" "good" 5 FALSE
"ad8f3df7" "guta8guta8" 0 0 1 "guta" "same" 5759 1 "native" "good" 5 FALSE
"ad8f3df7" "lita1lita8" 0 0 0 "lita" "diff" 7277 1 "native" "good" 5 FALSE
"ad8f3df7" "lita8lita1" 0 1 1 "lita" "diff" 6169 1 "native" "good" 5 FALSE
"ad8f3df7" "lita1lita1" 0 0 1 "lita" "same" 7324 1 "native" "good" 5 FALSE
"ad8f3df7" "lita8lita8" 0 0 1 "lita" "same" 5814 1 "native" "good" 5 FALSE
"ad8f3df7" "guta1guta1" 1 0 1 "guta" "same" 4036 1 "native" "good" 5 FALSE
"ad8f3df7" "guta8guta1" 1 1 1 "guta" "diff" 3697 1 "native" "good" 5 FALSE
"ad8f3df7" "guta1guta8" 1 1 1 "guta" "diff" 3959 1 "native" "good" 5 FALSE
"ad8f3df7" "guta8guta8" 1 0 1 "guta" "same" 3986 1 "native" "good" 5 FALSE
"ad8f3df7" "lita8lita8" 1 0 1 "lita" "same" 3222 1 "native" "good" 5 FALSE
"ad8f3df7" "lita1lita8" 1 0 0 "lita" "diff" 4084 1 "native" "good" 5 FALSE
"ad8f3df7" "lita8lita1" 1 0 0 "lita" "diff" 4532 1 "native" "good" 5 FALSE
"ad8f3df7" "lita1lita1" 1 0 1 "lita" "same" 4209 1 "native" "good" 5 FALSE
"a490ba35" "guta8guta1" 0 1 1 "guta" "diff" 4615 1 "native" "good" 5 FALSE
"a490ba35" "guta8guta8" 0 0 1 "guta" "same" 3956 1 "native" "good" 5 FALSE
"a490ba35" "guta1guta1" 0 0 1 "guta" "same" 4205 1 "native" "good" 5 FALSE
"a490ba35" "guta1guta8" 0 1 1 "guta" "diff" 3766 1 "native" "good" 5 FALSE
"a490ba35" "lita1lita8" 0 1 1 "lita" "diff" 4048 1 "native" "good" 5 FALSE
"a490ba35" "lita1lita1" 0 0 1 "lita" "same" 3706 1 "native" "good" 5 FALSE
"a490ba35" "lita8lita8" 0 0 1 "lita" "same" 3877 1 "native" "good" 5 FALSE
"a490ba35" "lita8lita1" 0 1 1 "lita" "diff" 3588 1 "native" "good" 5 FALSE
"a490ba35" "guta1guta1" 1 0 1 "guta" "same" 3621 1 "native" "good" 5 FALSE
"a490ba35" "guta1guta8" 1 1 1 "guta" "diff" 3092 1 "native" "good" 5 FALSE
"a490ba35" "guta8guta1" 1 1 1 "guta" "diff" 3353 1 "native" "good" 5 FALSE
"a490ba35" "guta8guta8" 1 0 1 "guta" "same" 3288 1 "native" "good" 5 FALSE
"a490ba35" "lita1lita1" 1 0 1 "lita" "same" 4191 1 "native" "good" 5 FALSE
"a490ba35" "lita8lita1" 1 1 1 "lita" "diff" 2998 1 "native" "good" 5 FALSE
"a490ba35" "lita8lita8" 1 0 1 "lita" "same" 3300 1 "native" "good" 5 FALSE
"a490ba35" "lita1lita8" 1 1 1 "lita" "diff" 3836 1 "native" "good" 5 FALSE
"86aa5a0a" "guta1guta8" 0 1 1 "guta" "diff" 3776 1 "native" "good" 5 FALSE
"86aa5a0a" "guta8guta8" 0 0 1 "guta" "same" 3270 1 "native" "good" 5 FALSE
"86aa5a0a" "guta1guta1" 0 0 1 "guta" "same" 3429 1 "native" "good" 5 FALSE
"86aa5a0a" "guta8guta1" 0 1 1 "guta" "diff" 3261 1 "native" "good" 5 FALSE
"86aa5a0a" "lita1lita8" 0 1 1 "lita" "diff" 3441 1 "native" "good" 5 FALSE
"86aa5a0a" "lita8lita1" 0 1 1 "lita" "diff" 3401 1 "native" "good" 5 FALSE
"86aa5a0a" "lita8lita8" 0 0 1 "lita" "same" 2983 1 "native" "good" 5 FALSE
"86aa5a0a" "lita1lita1" 0 0 1 "lita" "same" 3657 1 "native" "good" 5 FALSE
"86aa5a0a" "guta1guta1" 1 0 1 "guta" "same" 4163 1 "native" "good" 5 FALSE
"86aa5a0a" "guta1guta8" 1 1 1 "guta" "diff" 2924 1 "native" "good" 5 FALSE
"86aa5a0a" "guta8guta8" 1 0 1 "guta" "same" 3208 1 "native" "good" 5 FALSE
"86aa5a0a" "guta8guta1" 1 0 0 "guta" "diff" 2909 1 "native" "good" 5 FALSE
"86aa5a0a" "lita1lita1" 1 0 1 "lita" "same" 2818 1 "native" "good" 5 FALSE
"86aa5a0a" "lita8lita8" 1 0 1 "lita" "same" 2586 1 "native" "good" 5 FALSE
"86aa5a0a" "lita8lita1" 1 1 1 "lita" "diff" 2947 1 "native" "good" 5 FALSE
"86aa5a0a" "lita1lita8" 1 1 1 "lita" "diff" 3144 1 "native" "good" 5 FALSE
"6607697d" "guta8guta8" 0 1 0 "guta" "same" 3814 0.875 "native" "good" 5 FALSE
"6607697d" "guta1guta1" 0 1 0 "guta" "same" 3878 0.875 "native" "good" 5 FALSE
"6607697d" "guta1guta8" 0 1 1 "guta" "diff" 3337 0.875 "native" "good" 5 FALSE
"6607697d" "guta8guta1" 0 1 1 "guta" "diff" 3228 0.875 "native" "good" 5 FALSE
"6607697d" "lita1lita1" 0 1 0 "lita" "same" 4907 0.875 "native" "good" 5 FALSE
"6607697d" "lita1lita8" 0 0 0 "lita" "diff" 4428 0.875 "native" "good" 5 FALSE
"6607697d" "lita8lita1" 0 0 0 "lita" "diff" 6103 0.875 "native" "good" 5 FALSE
"6607697d" "lita8lita8" 0 0 1 "lita" "same" 3469 0.875 "native" "good" 5 FALSE
"6607697d" "guta1guta8" 1 0 0 "guta" "diff" 6895 0.875 "native" "good" 5 FALSE
"6607697d" "guta8guta8" 1 0 1 "guta" "same" 7849 0.875 "native" "good" 5 FALSE
"6607697d" "guta8guta1" 1 0 0 "guta" "diff" 6890 0.875 "native" "good" 5 FALSE
"6607697d" "guta1guta1" 1 0 1 "guta" "same" 3997 0.875 "native" "good" 5 FALSE
"6607697d" "lita1lita1" 1 0 1 "lita" "same" 3672 0.875 "native" "good" 5 FALSE
"6607697d" "lita8lita8" 1 0 1 "lita" "same" 3602 0.875 "native" "good" 5 FALSE
"6607697d" "lita8lita1" 1 0 0 "lita" "diff" 5815 0.875 "native" "good" 5 FALSE
"6607697d" "lita1lita8" 1 0 0 "lita" "diff" 8048 0.875 "native" "good" 5 FALSE
"4c9d584d" "guta8guta1" 0 1 1 "guta" "diff" 5792 0.75 "native" "good" 5 FALSE
"4c9d584d" "guta1guta1" 0 1 0 "guta" "same" 3677 0.75 "native" "good" 5 FALSE
"4c9d584d" "guta1guta8" 0 1 1 "guta" "diff" 3876 0.75 "native" "good" 5 FALSE
"4c9d584d" "guta8guta8" 0 1 0 "guta" "same" 4136 0.75 "native" "good" 5 FALSE
"4c9d584d" "lita1lita8" 0 1 1 "lita" "diff" 4459 0.75 "native" "good" 5 FALSE
"4c9d584d" "lita8lita1" 0 1 1 "lita" "diff" 4044 0.75 "native" "good" 5 FALSE
"4c9d584d" "lita8lita8" 0 1 0 "lita" "same" 4516 0.75 "native" "good" 5 FALSE
"4c9d584d" "lita1lita1" 0 1 0 "lita" "same" 4973 0.75 "native" "good" 5 FALSE
"4c9d584d" "guta8guta1" 1 0 0 "guta" "diff" 3526 0.75 "native" "good" 5 FALSE
"4c9d584d" "guta1guta1" 1 0 1 "guta" "same" 2810 0.75 "native" "good" 5 FALSE
"4c9d584d" "guta8guta8" 1 0 1 "guta" "same" 3350 0.75 "native" "good" 5 FALSE
"4c9d584d" "guta1guta8" 1 1 1 "guta" "diff" 3738 0.75 "native" "good" 5 FALSE
"4c9d584d" "lita1lita1" 1 0 1 "lita" "same" 2996 0.75 "native" "good" 5 FALSE
"4c9d584d" "lita8lita8" 1 0 1 "lita" "same" 3159 0.75 "native" "good" 5 FALSE
"4c9d584d" "lita8lita1" 1 1 1 "lita" "diff" 3690 0.75 "native" "good" 5 FALSE
"4c9d584d" "lita1lita8" 1 1 1 "lita" "diff" 3086 0.75 "native" "good" 5 FALSE
"11444da2" "guta1guta8" 0 0 0 "guta" "diff" 2832 0.875 "native" "good" 5 FALSE
"11444da2" "guta1guta1" 0 0 1 "guta" "same" 2888 0.875 "native" "good" 5 FALSE
"11444da2" "guta8guta1" 0 0 0 "guta" "diff" 2892 0.875 "native" "good" 5 FALSE
"11444da2" "guta8guta8" 0 0 1 "guta" "same" 2779 0.875 "native" "good" 5 FALSE
"11444da2" "lita8lita8" 0 0 1 "lita" "same" 4218 0.875 "native" "good" 5 FALSE
"11444da2" "lita8lita1" 0 0 0 "lita" "diff" 3744 0.875 "native" "good" 5 FALSE
"11444da2" "lita1lita8" 0 1 1 "lita" "diff" 2595 0.875 "native" "good" 5 FALSE
"11444da2" "lita1lita1" 0 0 1 "lita" "same" 2683 0.875 "native" "good" 5 FALSE
"11444da2" "guta1guta1" 1 0 1 "guta" "same" 3566 0.875 "native" "good" 5 FALSE
"11444da2" "guta1guta8" 1 0 0 "guta" "diff" 2543 0.875 "native" "good" 5 FALSE
"11444da2" "guta8guta8" 1 0 1 "guta" "same" 2441 0.875 "native" "good" 5 FALSE
"11444da2" "guta8guta1" 1 0 0 "guta" "diff" 2673 0.875 "native" "good" 5 FALSE
"11444da2" "lita1lita1" 1 0 1 "lita" "same" 2442 0.875 "native" "good" 5 FALSE
"11444da2" "lita8lita1" 1 0 0 "lita" "diff" 3093 0.875 "native" "good" 5 FALSE
"11444da2" "lita8lita8" 1 0 1 "lita" "same" 2597 0.875 "native" "good" 5 FALSE
"11444da2" "lita1lita8" 1 0 0 "lita" "diff" 2961 0.875 "native" "good" 5 FALSE
"fa736a06" "guta8guta8" 0 0 1 "guta" "same" 3962 1 "native" "good" 5 FALSE
"fa736a06" "guta1guta8" 0 0 0 "guta" "diff" 3631 1 "native" "good" 5 FALSE
"fa736a06" "guta1guta1" 0 0 1 "guta" "same" 3488 1 "native" "good" 5 FALSE
"fa736a06" "guta8guta1" 0 0 0 "guta" "diff" 4021 1 "native" "good" 5 FALSE
"fa736a06" "lita8lita1" 0 0 0 "lita" "diff" 3326 1 "native" "good" 5 FALSE
"fa736a06" "lita1lita1" 0 0 1 "lita" "same" 3675 1 "native" "good" 5 FALSE
"fa736a06" "lita8lita8" 0 0 1 "lita" "same" 4508 1 "native" "good" 5 FALSE
"fa736a06" "lita1lita8" 0 0 0 "lita" "diff" 4430 1 "native" "good" 5 FALSE
"fa736a06" "guta1guta8" 1 1 1 "guta" "diff" 3717 1 "native" "good" 5 FALSE
"fa736a06" "guta1guta1" 1 0 1 "guta" "same" 3024 1 "native" "good" 5 FALSE
"fa736a06" "guta8guta1" 1 1 1 "guta" "diff" 3358 1 "native" "good" 5 FALSE
"fa736a06" "guta8guta8" 1 0 1 "guta" "same" 3866 1 "native" "good" 5 FALSE
"fa736a06" "lita1lita1" 1 0 1 "lita" "same" 3461 1 "native" "good" 5 FALSE
"fa736a06" "lita1lita8" 1 1 1 "lita" "diff" 4385 1 "native" "good" 5 FALSE
"fa736a06" "lita8lita1" 1 1 1 "lita" "diff" 4242 1 "native" "good" 5 FALSE
"fa736a06" "lita8lita8" 1 0 1 "lita" "same" 3078 1 "native" "good" 5 FALSE
"1b535361" "guta8guta1" 0 0 0 "guta" "diff" 2958 1 "native" "good" 5 FALSE
"1b535361" "guta1guta8" 0 0 0 "guta" "diff" 3172 1 "native" "good" 5 FALSE
"1b535361" "guta8guta8" 0 0 1 "guta" "same" 2752 1 "native" "good" 5 FALSE
"1b535361" "guta1guta1" 0 0 1 "guta" "same" 2850 1 "native" "good" 5 FALSE
"1b535361" "lita1lita8" 0 0 0 "lita" "diff" 2961 1 "native" "good" 5 FALSE
"1b535361" "lita8lita1" 0 1 1 "lita" "diff" 2920 1 "native" "good" 5 FALSE
"1b535361" "lita8lita8" 0 0 1 "lita" "same" 2926 1 "native" "good" 5 FALSE
"1b535361" "lita1lita1" 0 0 1 "lita" "same" 4250 1 "native" "good" 5 FALSE
"1b535361" "guta1guta1" 1 0 1 "guta" "same" 2707 1 "native" "good" 5 FALSE
"1b535361" "guta8guta8" 1 0 1 "guta" "same" 2623 1 "native" "good" 5 FALSE
"1b535361" "guta8guta1" 1 1 1 "guta" "diff" 2708 1 "native" "good" 5 FALSE
"1b535361" "guta1guta8" 1 1 1 "guta" "diff" 2730 1 "native" "good" 5 FALSE
"1b535361" "lita8lita8" 1 0 1 "lita" "same" 2611 1 "native" "good" 5 FALSE
"1b535361" "lita1lita1" 1 0 1 "lita" "same" 2346 1 "native" "good" 5 FALSE
"1b535361" "lita1lita8" 1 0 0 "lita" "diff" 2100 1 "native" "good" 5 FALSE
"1b535361" "lita8lita1" 1 1 1 "lita" "diff" 2746 1 "native" "good" 5 FALSE
"51797608" "guta1guta8" 0 1 1 "guta" "diff" 2148 0.625 "native" "good" 5 FALSE
"51797608" "guta1guta1" 0 1 0 "guta" "same" 2308 0.625 "native" "good" 5 FALSE
"51797608" "guta8guta1" 0 1 1 "guta" "diff" 1849 0.625 "native" "good" 5 FALSE
"51797608" "guta8guta8" 0 1 0 "guta" "same" 2895 0.625 "native" "good" 5 FALSE
"51797608" "lita1lita8" 0 1 1 "lita" "diff" 1464 0.625 "native" "good" 5 FALSE
"51797608" "lita8lita8" 0 1 0 "lita" "same" 2375 0.625 "native" "good" 5 FALSE
"51797608" "lita8lita1" 0 1 1 "lita" "diff" 1799 0.625 "native" "good" 5 FALSE
"51797608" "lita1lita1" 0 0 1 "lita" "same" 7358 0.625 "native" "good" 5 FALSE
"51797608" "guta1guta1" 1 0 1 "guta" "same" 4016 0.625 "native" "good" 5 FALSE
"51797608" "guta1guta8" 1 0 0 "guta" "diff" 3278 0.625 "native" "good" 5 FALSE
"51797608" "guta8guta1" 1 0 0 "guta" "diff" 2893 0.625 "native" "good" 5 FALSE
"51797608" "guta8guta8" 1 0 1 "guta" "same" 2659 0.625 "native" "good" 5 FALSE
"51797608" "lita8lita8" 1 0 1 "lita" "same" 2980 0.625 "native" "good" 5 FALSE
"51797608" "lita1lita8" 1 0 0 "lita" "diff" 3073 0.625 "native" "good" 5 FALSE
"51797608" "lita8lita1" 1 0 0 "lita" "diff" 3777 0.625 "native" "good" 5 FALSE
"51797608" "lita1lita1" 1 0 1 "lita" "same" 2672 0.625 "native" "good" 5 FALSE
"3e6d4081" "guta8guta8" 0 0 1 "guta" "same" 3464 1 "native" "good" 5 FALSE
"3e6d4081" "guta1guta1" 0 0 1 "guta" "same" 3079 1 "native" "good" 5 FALSE
"3e6d4081" "guta1guta8" 0 0 0 "guta" "diff" 3738 1 "native" "good" 5 FALSE
"3e6d4081" "guta8guta1" 0 0 0 "guta" "diff" 4542 1 "native" "good" 5 FALSE
"3e6d4081" "lita1lita8" 0 0 0 "lita" "diff" 3464 1 "native" "good" 5 FALSE
"3e6d4081" "lita8lita1" 0 0 0 "lita" "diff" 4706 1 "native" "good" 5 FALSE
"3e6d4081" "lita1lita1" 0 0 1 "lita" "same" 3534 1 "native" "good" 5 FALSE
"3e6d4081" "lita8lita8" 0 0 1 "lita" "same" 3505 1 "native" "good" 5 FALSE
"3e6d4081" "guta1guta1" 1 0 1 "guta" "same" 3231 1 "native" "good" 5 FALSE
"3e6d4081" "guta8guta1" 1 1 1 "guta" "diff" 3198 1 "native" "good" 5 FALSE
"3e6d4081" "guta1guta8" 1 1 1 "guta" "diff" 3195 1 "native" "good" 5 FALSE
"3e6d4081" "guta8guta8" 1 0 1 "guta" "same" 3468 1 "native" "good" 5 FALSE
"3e6d4081" "lita8lita8" 1 1 0 "lita" "same" 3168 1 "native" "good" 5 FALSE
"3e6d4081" "lita1lita8" 1 1 1 "lita" "diff" 3181 1 "native" "good" 5 FALSE
"3e6d4081" "lita1lita1" 1 0 1 "lita" "same" 3609 1 "native" "good" 5 FALSE
"3e6d4081" "lita8lita1" 1 1 1 "lita" "diff" 3301 1 "native" "good" 5 FALSE
"7d2472fb" "guta1guta8" 0 1 1 "guta" "diff" 3779 1 "native" "good" 5 FALSE
"7d2472fb" "guta8guta1" 0 1 1 "guta" "diff" 7769 1 "native" "good" 5 FALSE
"7d2472fb" "guta8guta8" 0 0 1 "guta" "same" 3513 1 "native" "good" 5 FALSE
"7d2472fb" "guta1guta1" 0 0 1 "guta" "same" 3130 1 "native" "good" 5 FALSE
"7d2472fb" "lita1lita1" 0 0 1 "lita" "same" 3743 1 "native" "good" 5 FALSE
"7d2472fb" "lita8lita1" 0 1 1 "lita" "diff" 3514 1 "native" "good" 5 FALSE
"7d2472fb" "lita1lita8" 0 1 1 "lita" "diff" 3585 1 "native" "good" 5 FALSE
"7d2472fb" "lita8lita8" 0 0 1 "lita" "same" 7722 1 "native" "good" 5 FALSE
"7d2472fb" "guta8guta8" 1 0 1 "guta" "same" 2995 1 "native" "good" 5 FALSE
"7d2472fb" "guta8guta1" 1 1 1 "guta" "diff" 3082 1 "native" "good" 5 FALSE
"7d2472fb" "guta1guta8" 1 1 1 "guta" "diff" 3084 1 "native" "good" 5 FALSE
"7d2472fb" "guta1guta1" 1 0 1 "guta" "same" 2978 1 "native" "good" 5 FALSE
"7d2472fb" "lita1lita1" 1 0 1 "lita" "same" 2821 1 "native" "good" 5 FALSE
"7d2472fb" "lita1lita8" 1 1 1 "lita" "diff" 3192 1 "native" "good" 5 FALSE
"7d2472fb" "lita8lita1" 1 1 1 "lita" "diff" 2973 1 "native" "good" 5 FALSE
"7d2472fb" "lita8lita8" 1 0 1 "lita" "same" 2701 1 "native" "good" 5 FALSE
"832974ce" "guta1guta8" 0 0 0 "guta" "diff" 4157 1 "native" "good" 5 FALSE
"832974ce" "guta8guta8" 0 0 1 "guta" "same" 4933 1 "native" "good" 5 FALSE
"832974ce" "guta8guta1" 0 1 1 "guta" "diff" 5634 1 "native" "good" 5 FALSE
"832974ce" "guta1guta1" 0 0 1 "guta" "same" 3914 1 "native" "good" 5 FALSE
"832974ce" "lita1lita1" 0 0 1 "lita" "same" 4908 1 "native" "good" 5 FALSE
"832974ce" "lita8lita8" 0 0 1 "lita" "same" 4177 1 "native" "good" 5 FALSE
"832974ce" "lita8lita1" 0 0 0 "lita" "diff" 3855 1 "native" "good" 5 FALSE
"832974ce" "lita1lita8" 0 1 1 "lita" "diff" 3449 1 "native" "good" 5 FALSE
"832974ce" "guta8guta8" 1 0 1 "guta" "same" 3700 1 "native" "good" 5 FALSE
"832974ce" "guta1guta8" 1 1 1 "guta" "diff" 4679 1 "native" "good" 5 FALSE
"832974ce" "guta1guta1" 1 1 0 "guta" "same" 5034 1 "native" "good" 5 FALSE
"832974ce" "guta8guta1" 1 1 1 "guta" "diff" 3982 1 "native" "good" 5 FALSE
"832974ce" "lita8lita1" 1 1 1 "lita" "diff" 3960 1 "native" "good" 5 FALSE
"832974ce" "lita1lita8" 1 1 1 "lita" "diff" 3988 1 "native" "good" 5 FALSE
"832974ce" "lita8lita8" 1 0 1 "lita" "same" 4122 1 "native" "good" 5 FALSE
"832974ce" "lita1lita1" 1 1 0 "lita" "same" 3478 1 "native" "good" 5 FALSE
"6928e920" "guta8guta8" 0 0 1 "guta" "same" 3870 1 "native" "good" 5 FALSE
"6928e920" "guta1guta8" 0 0 0 "guta" "diff" 4750 1 "native" "good" 5 FALSE
"6928e920" "guta8guta1" 0 1 1 "guta" "diff" 5982 1 "native" "good" 5 FALSE
"6928e920" "guta1guta1" 0 0 1 "guta" "same" 3262 1 "native" "good" 5 FALSE
"6928e920" "lita1lita1" 0 0 1 "lita" "same" 4771 1 "native" "good" 5 FALSE
"6928e920" "lita1lita8" 0 1 1 "lita" "diff" 4025 1 "native" "good" 5 FALSE
"6928e920" "lita8lita8" 0 0 1 "lita" "same" 3663 1 "native" "good" 5 FALSE
"6928e920" "lita8lita1" 0 1 1 "lita" "diff" 4704 1 "native" "good" 5 FALSE
"6928e920" "guta8guta1" 1 1 1 "guta" "diff" 3670 1 "native" "good" 5 FALSE
"6928e920" "guta1guta1" 1 0 1 "guta" "same" 3031 1 "native" "good" 5 FALSE
"6928e920" "guta8guta8" 1 0 1 "guta" "same" 3345 1 "native" "good" 5 FALSE
"6928e920" "guta1guta8" 1 1 1 "guta" "diff" 3251 1 "native" "good" 5 FALSE
"6928e920" "lita1lita8" 1 0 0 "lita" "diff" 3940 1 "native" "good" 5 FALSE
"6928e920" "lita8lita8" 1 0 1 "lita" "same" 3093 1 "native" "good" 5 FALSE
"6928e920" "lita8lita1" 1 1 1 "lita" "diff" 3614 1 "native" "good" 5 FALSE
"6928e920" "lita1lita1" 1 0 1 "lita" "same" 3143 1 "native" "good" 5 FALSE
"5a912643" "guta1guta1" 0 0 1 "guta" "same" 5643 1 "native" "good" 5 FALSE
"5a912643" "guta8guta1" 0 0 0 "guta" "diff" 4157 1 "native" "good" 5 FALSE
"5a912643" "guta1guta8" 0 1 1 "guta" "diff" 4146 1 "native" "good" 5 FALSE
"5a912643" "guta8guta8" 0 0 1 "guta" "same" 3795 1 "native" "good" 5 FALSE
"5a912643" "lita8lita1" 0 1 1 "lita" "diff" 4577 1 "native" "good" 5 FALSE
"5a912643" "lita1lita8" 0 0 0 "lita" "diff" 4346 1 "native" "good" 5 FALSE
"5a912643" "lita8lita8" 0 0 1 "lita" "same" 4610 1 "native" "good" 5 FALSE
"5a912643" "lita1lita1" 0 0 1 "lita" "same" 3731 1 "native" "good" 5 FALSE
"5a912643" "guta1guta8" 1 1 1 "guta" "diff" 4013 1 "native" "good" 5 FALSE
"5a912643" "guta8guta1" 1 1 1 "guta" "diff" 3450 1 "native" "good" 5 FALSE
"5a912643" "guta8guta8" 1 0 1 "guta" "same" 3497 1 "native" "good" 5 FALSE
"5a912643" "guta1guta1" 1 0 1 "guta" "same" 3234 1 "native" "good" 5 FALSE
"5a912643" "lita1lita1" 1 0 1 "lita" "same" 3217 1 "native" "good" 5 FALSE
"5a912643" "lita1lita8" 1 1 1 "lita" "diff" 3297 1 "native" "good" 5 FALSE
"5a912643" "lita8lita8" 1 0 1 "lita" "same" 3218 1 "native" "good" 5 FALSE
"5a912643" "lita8lita1" 1 1 1 "lita" "diff" 3178 1 "native" "good" 5 FALSE
"d6dfa210" "guta1guta8" 0 0 0 "guta" "diff" 2858 1 "native" "good" 3 FALSE
"d6dfa210" "guta1guta1" 0 0 1 "guta" "same" 2933 1 "native" "good" 3 FALSE
"d6dfa210" "guta8guta8" 0 0 1 "guta" "same" 3047 1 "native" "good" 3 FALSE
"d6dfa210" "guta8guta1" 0 0 0 "guta" "diff" 3531 1 "native" "good" 3 FALSE
"d6dfa210" "lita1lita8" 0 0 0 "lita" "diff" 3812 1 "native" "good" 3 FALSE
"d6dfa210" "lita1lita1" 0 0 1 "lita" "same" 3001 1 "native" "good" 3 FALSE
"d6dfa210" "lita8lita8" 0 0 1 "lita" "same" 3047 1 "native" "good" 3 FALSE
"d6dfa210" "lita8lita1" 0 0 0 "lita" "diff" 6414 1 "native" "good" 3 FALSE
"d6dfa210" "guta8guta1" 1 0 0 "guta" "diff" 2547 1 "native" "good" 3 FALSE
"d6dfa210" "guta1guta1" 1 0 1 "guta" "same" 3070 1 "native" "good" 3 FALSE
"d6dfa210" "guta8guta8" 1 0 1 "guta" "same" 2462 1 "native" "good" 3 FALSE
"d6dfa210" "guta1guta8" 1 0 0 "guta" "diff" 2571 1 "native" "good" 3 FALSE
"d6dfa210" "lita1lita1" 1 1 0 "lita" "same" 2624 1 "native" "good" 3 FALSE
"d6dfa210" "lita1lita8" 1 1 1 "lita" "diff" 3940 1 "native" "good" 3 FALSE
"d6dfa210" "lita8lita1" 1 1 1 "lita" "diff" 3317 1 "native" "good" 3 FALSE
"d6dfa210" "lita8lita8" 1 0 1 "lita" "same" 2999 1 "native" "good" 3 FALSE
"c2e6ea6d" "guta1guta8" 0 0 0 "guta" "diff" 4148 1 "native" "good" 3 FALSE
"c2e6ea6d" "guta8guta8" 0 0 1 "guta" "same" 3432 1 "native" "good" 3 FALSE
"c2e6ea6d" "guta8guta1" 0 0 0 "guta" "diff" 3687 1 "native" "good" 3 FALSE
"c2e6ea6d" "guta1guta1" 0 0 1 "guta" "same" 3575 1 "native" "good" 3 FALSE
"c2e6ea6d" "lita8lita8" 0 0 1 "lita" "same" 10237 1 "native" "good" 3 FALSE
"c2e6ea6d" "lita8lita1" 0 0 0 "lita" "diff" 6531 1 "native" "good" 3 FALSE
"c2e6ea6d" "lita1lita1" 0 0 1 "lita" "same" 3604 1 "native" "good" 3 FALSE
"c2e6ea6d" "lita1lita8" 0 0 0 "lita" "diff" 4390 1 "native" "good" 3 FALSE
"c2e6ea6d" "guta1guta8" 1 1 1 "guta" "diff" 3612 1 "native" "good" 3 FALSE
"c2e6ea6d" "guta8guta1" 1 1 1 "guta" "diff" 3436 1 "native" "good" 3 FALSE
"c2e6ea6d" "guta1guta1" 1 0 1 "guta" "same" 3804 1 "native" "good" 3 FALSE
"c2e6ea6d" "guta8guta8" 1 0 1 "guta" "same" 3627 1 "native" "good" 3 FALSE
"c2e6ea6d" "lita1lita8" 1 0 0 "lita" "diff" 2750 1 "native" "good" 3 FALSE
"c2e6ea6d" "lita8lita8" 1 0 1 "lita" "same" 2733 1 "native" "good" 3 FALSE
"c2e6ea6d" "lita8lita1" 1 0 0 "lita" "diff" 2599 1 "native" "good" 3 FALSE
"c2e6ea6d" "lita1lita1" 1 0 1 "lita" "same" 2599 1 "native" "good" 3 FALSE
"b91bd35" "guta8guta8" 0 0 1 "guta" "same" 3951 1 "native" "good" 3 FALSE
"b91bd35" "guta1guta1" 0 0 1 "guta" "same" 3577 1 "native" "good" 3 FALSE
"b91bd35" "guta1guta8" 0 0 0 "guta" "diff" 3212 1 "native" "good" 3 FALSE
"b91bd35" "guta8guta1" 0 0 0 "guta" "diff" 4841 1 "native" "good" 3 FALSE
"b91bd35" "lita1lita1" 0 0 1 "lita" "same" 3075 1 "native" "good" 3 FALSE
"b91bd35" "lita8lita8" 0 0 1 "lita" "same" 3846 1 "native" "good" 3 FALSE
"b91bd35" "lita1lita8" 0 0 0 "lita" "diff" 3148 1 "native" "good" 3 FALSE
"b91bd35" "lita8lita1" 0 0 0 "lita" "diff" 3615 1 "native" "good" 3 FALSE
"b91bd35" "guta8guta1" 1 0 0 "guta" "diff" 2545 1 "native" "good" 3 FALSE
"b91bd35" "guta1guta1" 1 0 1 "guta" "same" 2885 1 "native" "good" 3 FALSE
"b91bd35" "guta1guta8" 1 0 0 "guta" "diff" 2726 1 "native" "good" 3 FALSE
"b91bd35" "guta8guta8" 1 0 1 "guta" "same" 2681 1 "native" "good" 3 FALSE
"b91bd35" "lita1lita8" 1 0 0 "lita" "diff" 3177 1 "native" "good" 3 FALSE
"b91bd35" "lita1lita1" 1 0 1 "lita" "same" 2458 1 "native" "good" 3 FALSE
"b91bd35" "lita8lita1" 1 0 0 "lita" "diff" 2667 1 "native" "good" 3 FALSE
"b91bd35" "lita8lita8" 1 0 1 "lita" "same" 3258 1 "native" "good" 3 FALSE
"56d5bf5a" "guta8guta1" 0 0 0 "guta" "diff" 5760 1 "native" "good" 3 FALSE
"56d5bf5a" "guta1guta1" 0 0 1 "guta" "same" 10900 1 "native" "good" 3 FALSE
"56d5bf5a" "guta1guta8" 0 0 0 "guta" "diff" 13037 1 "native" "good" 3 FALSE
"56d5bf5a" "guta8guta8" 0 0 1 "guta" "same" 4888 1 "native" "good" 3 FALSE
"56d5bf5a" "lita8lita1" 0 1 1 "lita" "diff" 10640 1 "native" "good" 3 FALSE
"56d5bf5a" "lita1lita8" 0 0 0 "lita" "diff" 7457 1 "native" "good" 3 FALSE
"56d5bf5a" "lita8lita8" 0 0 1 "lita" "same" 3680 1 "native" "good" 3 FALSE
"56d5bf5a" "lita1lita1" 0 0 1 "lita" "same" 3287 1 "native" "good" 3 FALSE
"56d5bf5a" "guta1guta8" 1 1 1 "guta" "diff" 3000 1 "native" "good" 3 FALSE
"56d5bf5a" "guta8guta1" 1 1 1 "guta" "diff" 3425 1 "native" "good" 3 FALSE
"56d5bf5a" "guta8guta8" 1 0 1 "guta" "same" 4802 1 "native" "good" 3 FALSE
"56d5bf5a" "guta1guta1" 1 0 1 "guta" "same" 4845 1 "native" "good" 3 FALSE
"56d5bf5a" "lita8lita1" 1 0 0 "lita" "diff" 3827 1 "native" "good" 3 FALSE
"56d5bf5a" "lita1lita8" 1 1 1 "lita" "diff" 4165 1 "native" "good" 3 FALSE
"56d5bf5a" "lita1lita1" 1 0 1 "lita" "same" 2840 1 "native" "good" 3 FALSE
"56d5bf5a" "lita8lita8" 1 0 1 "lita" "same" 2825 1 "native" "good" 3 FALSE
"5234a02d" "guta8guta8" 0 1 0 "guta" "same" 2069 0.75 "native" "good" 3 FALSE
"5234a02d" "guta1guta1" 0 1 0 "guta" "same" 2020 0.75 "native" "good" 3 FALSE
"5234a02d" "guta8guta1" 0 1 1 "guta" "diff" 1907 0.75 "native" "good" 3 FALSE
"5234a02d" "guta1guta8" 0 1 1 "guta" "diff" 1913 0.75 "native" "good" 3 FALSE
"5234a02d" "lita1lita8" 0 1 1 "lita" "diff" 1842 0.75 "native" "good" 3 FALSE
"5234a02d" "lita8lita1" 0 1 1 "lita" "diff" 2329 0.75 "native" "good" 3 FALSE
"5234a02d" "lita1lita1" 0 1 0 "lita" "same" 2361 0.75 "native" "good" 3 FALSE
"5234a02d" "lita8lita8" 0 1 0 "lita" "same" 3100 0.75 "native" "good" 3 FALSE
"5234a02d" "guta8guta8" 1 0 1 "guta" "same" 3575 0.75 "native" "good" 3 FALSE
"5234a02d" "guta1guta8" 1 0 0 "guta" "diff" 3053 0.75 "native" "good" 3 FALSE
"5234a02d" "guta8guta1" 1 0 0 "guta" "diff" 2976 0.75 "native" "good" 3 FALSE
"5234a02d" "guta1guta1" 1 0 1 "guta" "same" 2578 0.75 "native" "good" 3 FALSE
"5234a02d" "lita1lita8" 1 0 0 "lita" "diff" 3804 0.75 "native" "good" 3 FALSE
"5234a02d" "lita1lita1" 1 0 1 "lita" "same" 3123 0.75 "native" "good" 3 FALSE
"5234a02d" "lita8lita8" 1 0 1 "lita" "same" 1211 0.75 "native" "good" 3 FALSE
"5234a02d" "lita8lita1" 1 0 0 "lita" "diff" 2269 0.75 "native" "good" 3 FALSE
"bfd040a4" "guta1guta1" 0 0 1 "guta" "same" 3407 1 "native" "good" 3 FALSE
"bfd040a4" "guta8guta1" 0 0 0 "guta" "diff" 3430 1 "native" "good" 3 FALSE
"bfd040a4" "guta8guta8" 0 0 1 "guta" "same" 8807 1 "native" "good" 3 FALSE
"bfd040a4" "guta1guta8" 0 1 1 "guta" "diff" 3542 1 "native" "good" 3 FALSE
"bfd040a4" "lita8lita1" 0 1 1 "lita" "diff" 4246 1 "native" "good" 3 FALSE
"bfd040a4" "lita1lita8" 0 1 1 "lita" "diff" 3551 1 "native" "good" 3 FALSE
"bfd040a4" "lita1lita1" 0 0 1 "lita" "same" 5887 1 "native" "good" 3 FALSE
"bfd040a4" "lita8lita8" 0 0 1 "lita" "same" 5173 1 "native" "good" 3 FALSE
"bfd040a4" "guta1guta1" 1 0 1 "guta" "same" 3135 1 "native" "good" 3 FALSE
"bfd040a4" "guta8guta8" 1 0 1 "guta" "same" 2962 1 "native" "good" 3 FALSE
"bfd040a4" "guta1guta8" 1 0 0 "guta" "diff" 3857 1 "native" "good" 3 FALSE
"bfd040a4" "guta8guta1" 1 0 0 "guta" "diff" 3071 1 "native" "good" 3 FALSE
"bfd040a4" "lita1lita1" 1 0 1 "lita" "same" 2944 1 "native" "good" 3 FALSE
"bfd040a4" "lita8lita1" 1 0 0 "lita" "diff" 4575 1 "native" "good" 3 FALSE
"bfd040a4" "lita1lita8" 1 0 0 "lita" "diff" 9400 1 "native" "good" 3 FALSE
"bfd040a4" "lita8lita8" 1 0 1 "lita" "same" 6265 1 "native" "good" 3 FALSE
"62e93fe8" "guta8guta8" 0 0 1 "guta" "same" 2815 1 "native" "good" 3 FALSE
"62e93fe8" "guta1guta8" 0 0 0 "guta" "diff" 2699 1 "native" "good" 3 FALSE
"62e93fe8" "guta8guta1" 0 0 0 "guta" "diff" 2870 1 "native" "good" 3 FALSE
"62e93fe8" "guta1guta1" 0 0 1 "guta" "same" 3100 1 "native" "good" 3 FALSE
"62e93fe8" "lita1lita1" 0 0 1 "lita" "same" 2975 1 "native" "good" 3 FALSE
"62e93fe8" "lita1lita8" 0 0 0 "lita" "diff" 2448 1 "native" "good" 3 FALSE
"62e93fe8" "lita8lita8" 0 0 1 "lita" "same" 2789 1 "native" "good" 3 FALSE
"62e93fe8" "lita8lita1" 0 0 0 "lita" "diff" 2702 1 "native" "good" 3 FALSE
"62e93fe8" "guta1guta1" 1 0 1 "guta" "same" 2602 1 "native" "good" 3 FALSE
"62e93fe8" "guta1guta8" 1 0 0 "guta" "diff" 2774 1 "native" "good" 3 FALSE
"62e93fe8" "guta8guta1" 1 0 0 "guta" "diff" 2352 1 "native" "good" 3 FALSE
"62e93fe8" "guta8guta8" 1 0 1 "guta" "same" 2555 1 "native" "good" 3 FALSE
"62e93fe8" "lita8lita1" 1 0 0 "lita" "diff" 2650 1 "native" "good" 3 FALSE
"62e93fe8" "lita1lita1" 1 0 1 "lita" "same" 2740 1 "native" "good" 3 FALSE
"62e93fe8" "lita1lita8" 1 0 0 "lita" "diff" 2357 1 "native" "good" 3 FALSE
"62e93fe8" "lita8lita8" 1 0 1 "lita" "same" 2464 1 "native" "good" 3 FALSE
"8aa80836" "guta8guta8" 0 0 1 "guta" "same" 3486 1 "native" "good" 3 FALSE
"8aa80836" "guta1guta1" 0 0 1 "guta" "same" 3087 1 "native" "good" 3 FALSE
"8aa80836" "guta1guta8" 0 1 1 "guta" "diff" 3684 1 "native" "good" 3 FALSE
"8aa80836" "guta8guta1" 0 1 1 "guta" "diff" 3716 1 "native" "good" 3 FALSE
"8aa80836" "lita8lita8" 0 0 1 "lita" "same" 3336 1 "native" "good" 3 FALSE
"8aa80836" "lita8lita1" 0 1 1 "lita" "diff" 3471 1 "native" "good" 3 FALSE
"8aa80836" "lita1lita1" 0 0 1 "lita" "same" 3277 1 "native" "good" 3 FALSE
"8aa80836" "lita1lita8" 0 1 1 "lita" "diff" 3489 1 "native" "good" 3 FALSE
"8aa80836" "guta8guta1" 1 1 1 "guta" "diff" 3279 1 "native" "good" 3 FALSE
"8aa80836" "guta1guta8" 1 1 1 "guta" "diff" 2813 1 "native" "good" 3 FALSE
"8aa80836" "guta1guta1" 1 0 1 "guta" "same" 3182 1 "native" "good" 3 FALSE
"8aa80836" "guta8guta8" 1 0 1 "guta" "same" 2871 1 "native" "good" 3 FALSE
"8aa80836" "lita8lita8" 1 0 1 "lita" "same" 2980 1 "native" "good" 3 FALSE
"8aa80836" "lita1lita1" 1 0 1 "lita" "same" 3333 1 "native" "good" 3 FALSE
"8aa80836" "lita1lita8" 1 1 1 "lita" "diff" 3232 1 "native" "good" 3 FALSE
"8aa80836" "lita8lita1" 1 1 1 "lita" "diff" 3097 1 "native" "good" 3 FALSE
"39702331" "guta1guta8" 0 0 0 "guta" "diff" 3677 0.875 "native" "good" 3 FALSE
"39702331" "guta8guta8" 0 0 1 "guta" "same" 3285 0.875 "native" "good" 3 FALSE
"39702331" "guta8guta1" 0 0 0 "guta" "diff" 3071 0.875 "native" "good" 3 FALSE
"39702331" "guta1guta1" 0 0 1 "guta" "same" 2967 0.875 "native" "good" 3 FALSE
"39702331" "lita8lita1" 0 0 0 "lita" "diff" 3470 0.875 "native" "good" 3 FALSE
"39702331" "lita8lita8" 0 0 1 "lita" "same" 3206 0.875 "native" "good" 3 FALSE
"39702331" "lita1lita8" 0 0 0 "lita" "diff" 3840 0.875 "native" "good" 3 FALSE
"39702331" "lita1lita1" 0 0 1 "lita" "same" 3456 0.875 "native" "good" 3 FALSE
"39702331" "guta8guta1" 1 0 0 "guta" "diff" 3168 0.875 "native" "good" 3 FALSE
"39702331" "guta1guta1" 1 0 1 "guta" "same" 3092 0.875 "native" "good" 3 FALSE
"39702331" "guta1guta8" 1 0 0 "guta" "diff" 3005 0.875 "native" "good" 3 FALSE
"39702331" "guta8guta8" 1 0 1 "guta" "same" 2610 0.875 "native" "good" 3 FALSE
"39702331" "lita8lita8" 1 0 1 "lita" "same" 2786 0.875 "native" "good" 3 FALSE
"39702331" "lita8lita1" 1 0 0 "lita" "diff" 3156 0.875 "native" "good" 3 FALSE
"39702331" "lita1lita8" 1 0 0 "lita" "diff" 2283 0.875 "native" "good" 3 FALSE
"39702331" "lita1lita1" 1 0 1 "lita" "same" 2622 0.875 "native" "good" 3 FALSE
"daa86093" "guta8guta1" 0 1 1 "guta" "diff" 3496 0.75 "native" "good" 3 FALSE
"daa86093" "guta1guta8" 0 1 1 "guta" "diff" 4077 0.75 "native" "good" 3 FALSE
"daa86093" "guta1guta1" 0 0 1 "guta" "same" 3983 0.75 "native" "good" 3 FALSE
"daa86093" "guta8guta8" 0 0 1 "guta" "same" 4677 0.75 "native" "good" 3 FALSE
"daa86093" "lita1lita8" 0 1 1 "lita" "diff" 3944 0.75 "native" "good" 3 FALSE
"daa86093" "lita1lita1" 0 0 1 "lita" "same" 3328 0.75 "native" "good" 3 FALSE
"daa86093" "lita8lita8" 0 0 1 "lita" "same" 3430 0.75 "native" "good" 3 FALSE
"daa86093" "lita8lita1" 0 1 1 "lita" "diff" 3702 0.75 "native" "good" 3 FALSE
"daa86093" "guta1guta1" 1 0 1 "guta" "same" 3000 0.75 "native" "good" 3 FALSE
"daa86093" "guta1guta8" 1 1 1 "guta" "diff" 3790 0.75 "native" "good" 3 FALSE
"daa86093" "guta8guta1" 1 1 1 "guta" "diff" 4107 0.75 "native" "good" 3 FALSE
"daa86093" "guta8guta8" 1 0 1 "guta" "same" 3108 0.75 "native" "good" 3 FALSE
"daa86093" "lita8lita8" 1 0 1 "lita" "same" 3242 0.75 "native" "good" 3 FALSE
"daa86093" "lita8lita1" 1 1 1 "lita" "diff" 3316 0.75 "native" "good" 3 FALSE
"daa86093" "lita1lita1" 1 0 1 "lita" "same" 3252 0.75 "native" "good" 3 FALSE
"daa86093" "lita1lita8" 1 0 0 "lita" "diff" 3433 0.75 "native" "good" 3 FALSE
"7be9016c" "guta1guta1" 0 0 1 "guta" "same" 4020 1 "native" "good" 3 FALSE
"7be9016c" "guta8guta1" 0 1 1 "guta" "diff" 6013 1 "native" "good" 3 FALSE
"7be9016c" "guta1guta8" 0 1 1 "guta" "diff" 4543 1 "native" "good" 3 FALSE
"7be9016c" "guta8guta8" 0 0 1 "guta" "same" 4420 1 "native" "good" 3 FALSE
"7be9016c" "lita1lita8" 0 1 1 "lita" "diff" 4396 1 "native" "good" 3 FALSE
"7be9016c" "lita8lita1" 0 1 1 "lita" "diff" 5018 1 "native" "good" 3 FALSE
"7be9016c" "lita1lita1" 0 0 1 "lita" "same" 3668 1 "native" "good" 3 FALSE
"7be9016c" "lita8lita8" 0 0 1 "lita" "same" 3595 1 "native" "good" 3 FALSE
"7be9016c" "guta1guta1" 1 0 1 "guta" "same" 2996 1 "native" "good" 3 FALSE
"7be9016c" "guta8guta1" 1 1 1 "guta" "diff" 2853 1 "native" "good" 3 FALSE
"7be9016c" "guta1guta8" 1 1 1 "guta" "diff" 2828 1 "native" "good" 3 FALSE
"7be9016c" "guta8guta8" 1 0 1 "guta" "same" 3162 1 "native" "good" 3 FALSE
"7be9016c" "lita8lita1" 1 1 1 "lita" "diff" 3181 1 "native" "good" 3 FALSE
"7be9016c" "lita8lita8" 1 0 1 "lita" "same" 2831 1 "native" "good" 3 FALSE
"7be9016c" "lita1lita8" 1 1 1 "lita" "diff" 2712 1 "native" "good" 3 FALSE
"7be9016c" "lita1lita1" 1 0 1 "lita" "same" 2746 1 "native" "good" 3 FALSE
"4d6e60e7" "guta8guta1" 0 0 0 "guta" "diff" 3503 1 "native" "good" 3 FALSE
"4d6e60e7" "guta1guta8" 0 0 0 "guta" "diff" 3620 1 "native" "good" 3 FALSE
"4d6e60e7" "guta1guta1" 0 1 0 "guta" "same" 4029 1 "native" "good" 3 FALSE
"4d6e60e7" "guta8guta8" 0 0 1 "guta" "same" 3576 1 "native" "good" 3 FALSE
"4d6e60e7" "lita1lita1" 0 0 1 "lita" "same" 4565 1 "native" "good" 3 FALSE
"4d6e60e7" "lita8lita1" 0 1 1 "lita" "diff" 3972 1 "native" "good" 3 FALSE
"4d6e60e7" "lita8lita8" 0 0 1 "lita" "same" 3596 1 "native" "good" 3 FALSE
"4d6e60e7" "lita1lita8" 0 0 0 "lita" "diff" 3336 1 "native" "good" 3 FALSE
"4d6e60e7" "guta1guta8" 1 1 1 "guta" "diff" 3052 1 "native" "good" 3 FALSE
"4d6e60e7" "guta1guta1" 1 0 1 "guta" "same" 3365 1 "native" "good" 3 FALSE
"4d6e60e7" "guta8guta1" 1 1 1 "guta" "diff" 3034 1 "native" "good" 3 FALSE
"4d6e60e7" "guta8guta8" 1 1 0 "guta" "same" 3254 1 "native" "good" 3 FALSE
"4d6e60e7" "lita1lita8" 1 0 0 "lita" "diff" 3310 1 "native" "good" 3 FALSE
"4d6e60e7" "lita8lita1" 1 0 0 "lita" "diff" 2993 1 "native" "good" 3 FALSE
"4d6e60e7" "lita8lita8" 1 0 1 "lita" "same" 3180 1 "native" "good" 3 FALSE
"4d6e60e7" "lita1lita1" 1 0 1 "lita" "same" 2824 1 "native" "good" 3 FALSE
"29662dfb" "guta1guta8" 0 1 1 "guta" "diff" 3862 0.875 "native" "good" 3 FALSE
"29662dfb" "guta8guta1" 0 1 1 "guta" "diff" 3882 0.875 "native" "good" 3 FALSE
"29662dfb" "guta8guta8" 0 0 1 "guta" "same" 3687 0.875 "native" "good" 3 FALSE
"29662dfb" "guta1guta1" 0 0 1 "guta" "same" 3219 0.875 "native" "good" 3 FALSE
"29662dfb" "lita1lita8" 0 1 1 "lita" "diff" 3549 0.875 "native" "good" 3 FALSE
"29662dfb" "lita8lita1" 0 1 1 "lita" "diff" 3542 0.875 "native" "good" 3 FALSE
"29662dfb" "lita8lita8" 0 0 1 "lita" "same" 4297 0.875 "native" "good" 3 FALSE
"29662dfb" "lita1lita1" 0 0 1 "lita" "same" 3103 0.875 "native" "good" 3 FALSE
"29662dfb" "guta8guta1" 1 1 1 "guta" "diff" 3565 0.875 "native" "good" 3 FALSE
"29662dfb" "guta8guta8" 1 0 1 "guta" "same" 3281 0.875 "native" "good" 3 FALSE
"29662dfb" "guta1guta1" 1 0 1 "guta" "same" 3668 0.875 "native" "good" 3 FALSE
"29662dfb" "guta1guta8" 1 1 1 "guta" "diff" 3222 0.875 "native" "good" 3 FALSE
"29662dfb" "lita8lita1" 1 1 1 "lita" "diff" 3417 0.875 "native" "good" 3 FALSE
"29662dfb" "lita8lita8" 1 0 1 "lita" "same" 3101 0.875 "native" "good" 3 FALSE
"29662dfb" "lita1lita1" 1 0 1 "lita" "same" 2999 0.875 "native" "good" 3 FALSE
"29662dfb" "lita1lita8" 1 1 1 "lita" "diff" 3444 0.875 "native" "good" 3 FALSE
"ac11dcc" "guta8guta8" 0 0 1 "guta" "same" 5518 1 "native" "good" 3 FALSE
"ac11dcc" "guta1guta8" 0 0 0 "guta" "diff" 7519 1 "native" "good" 3 FALSE
"ac11dcc" "guta1guta1" 0 0 1 "guta" "same" 7096 1 "native" "good" 3 FALSE
"ac11dcc" "guta8guta1" 0 0 0 "guta" "diff" 5620 1 "native" "good" 3 FALSE
"ac11dcc" "lita8lita8" 0 0 1 "lita" "same" 7141 1 "native" "good" 3 FALSE
"ac11dcc" "lita8lita1" 0 0 0 "lita" "diff" 4955 1 "native" "good" 3 FALSE
"ac11dcc" "lita1lita8" 0 0 0 "lita" "diff" 5079 1 "native" "good" 3 FALSE
"ac11dcc" "lita1lita1" 0 0 1 "lita" "same" 4381 1 "native" "good" 3 FALSE
"ac11dcc" "guta1guta8" 1 0 0 "guta" "diff" 4656 1 "native" "good" 3 FALSE
"ac11dcc" "guta1guta1" 1 0 1 "guta" "same" 5139 1 "native" "good" 3 FALSE
"ac11dcc" "guta8guta1" 1 0 0 "guta" "diff" 4883 1 "native" "good" 3 FALSE
"ac11dcc" "guta8guta8" 1 0 1 "guta" "same" 4946 1 "native" "good" 3 FALSE
"ac11dcc" "lita1lita8" 1 0 0 "lita" "diff" 10918 1 "native" "good" 3 FALSE
"ac11dcc" "lita8lita1" 1 0 0 "lita" "diff" 6433 1 "native" "good" 3 FALSE
"ac11dcc" "lita1lita1" 1 0 1 "lita" "same" 3943 1 "native" "good" 3 FALSE
"ac11dcc" "lita8lita8" 1 0 1 "lita" "same" 5258 1 "native" "good" 3 FALSE
"53a58a2" "guta8guta1" 0 0 0 "guta" "diff" 4106 1 "native" "good" 1 FALSE
"53a58a2" "guta1guta8" 0 0 0 "guta" "diff" 3114 1 "native" "good" 1 FALSE
"53a58a2" "guta8guta8" 0 0 1 "guta" "same" 3306 1 "native" "good" 1 FALSE
"53a58a2" "guta1guta1" 0 0 1 "guta" "same" 3582 1 "native" "good" 1 FALSE
"53a58a2" "lita8lita8" 0 0 1 "lita" "same" 3282 1 "native" "good" 1 FALSE
"53a58a2" "lita1lita1" 0 0 1 "lita" "same" 3748 1 "native" "good" 1 FALSE
"53a58a2" "lita1lita8" 0 1 1 "lita" "diff" 3374 1 "native" "good" 1 FALSE
"53a58a2" "lita8lita1" 0 0 0 "lita" "diff" 3223 1 "native" "good" 1 FALSE
"53a58a2" "guta8guta8" 1 0 1 "guta" "same" 2756 1 "native" "good" 1 FALSE
"53a58a2" "guta1guta8" 1 0 0 "guta" "diff" 2764 1 "native" "good" 1 FALSE
"53a58a2" "guta8guta1" 1 0 0 "guta" "diff" 2834 1 "native" "good" 1 FALSE
"53a58a2" "guta1guta1" 1 0 1 "guta" "same" 2732 1 "native" "good" 1 FALSE
"53a58a2" "lita8lita1" 1 0 0 "lita" "diff" 2737 1 "native" "good" 1 FALSE
"53a58a2" "lita1lita1" 1 0 1 "lita" "same" 2611 1 "native" "good" 1 FALSE
"53a58a2" "lita8lita8" 1 0 1 "lita" "same" 2780 1 "native" "good" 1 FALSE
"53a58a2" "lita1lita8" 1 0 0 "lita" "diff" 2702 1 "native" "good" 1 FALSE
"724e352c" "guta8guta1" 0 0 0 "guta" "diff" 2822 0.75 "native" "good" 1 FALSE
"724e352c" "guta1guta8" 0 0 0 "guta" "diff" 2974 0.75 "native" "good" 1 FALSE
"724e352c" "guta1guta1" 0 0 1 "guta" "same" 2213 0.75 "native" "good" 1 FALSE
"724e352c" "guta8guta8" 0 0 1 "guta" "same" 2466 0.75 "native" "good" 1 FALSE
"724e352c" "lita8lita8" 0 0 1 "lita" "same" 2787 0.75 "native" "good" 1 FALSE
"724e352c" "lita1lita1" 0 1 0 "lita" "same" 2504 0.75 "native" "good" 1 FALSE
"724e352c" "lita8lita1" 0 0 0 "lita" "diff" 2500 0.75 "native" "good" 1 FALSE
"724e352c" "lita1lita8" 0 0 0 "lita" "diff" 2698 0.75 "native" "good" 1 FALSE
"724e352c" "guta1guta1" 1 0 1 "guta" "same" 2739 0.75 "native" "good" 1 FALSE
"724e352c" "guta8guta8" 1 0 1 "guta" "same" 2263 0.75 "native" "good" 1 FALSE
"724e352c" "guta8guta1" 1 0 0 "guta" "diff" 2375 0.75 "native" "good" 1 FALSE
"724e352c" "guta1guta8" 1 0 0 "guta" "diff" 2805 0.75 "native" "good" 1 FALSE
"724e352c" "lita1lita1" 1 1 0 "lita" "same" 2270 0.75 "native" "good" 1 FALSE
"724e352c" "lita8lita1" 1 1 1 "lita" "diff" 2503 0.75 "native" "good" 1 FALSE
"724e352c" "lita8lita8" 1 1 0 "lita" "same" 2914 0.75 "native" "good" 1 FALSE
"724e352c" "lita1lita8" 1 0 0 "lita" "diff" 2815 0.75 "native" "good" 1 FALSE
"31e8db6a" "guta8guta8" 0 0 1 "guta" "same" 3168 1 "native" "good" 1 FALSE
"31e8db6a" "guta1guta8" 0 0 0 "guta" "diff" 3239 1 "native" "good" 1 FALSE
"31e8db6a" "guta1guta1" 0 0 1 "guta" "same" 3173 1 "native" "good" 1 FALSE
"31e8db6a" "guta8guta1" 0 0 0 "guta" "diff" 3532 1 "native" "good" 1 FALSE
"31e8db6a" "lita1lita8" 0 0 0 "lita" "diff" 3484 1 "native" "good" 1 FALSE
"31e8db6a" "lita8lita1" 0 0 0 "lita" "diff" 3442 1 "native" "good" 1 FALSE
"31e8db6a" "lita1lita1" 0 0 1 "lita" "same" 4107 1 "native" "good" 1 FALSE
"31e8db6a" "lita8lita8" 0 0 1 "lita" "same" 3624 1 "native" "good" 1 FALSE
"31e8db6a" "guta8guta8" 1 0 1 "guta" "same" 2955 1 "native" "good" 1 FALSE
"31e8db6a" "guta1guta8" 1 0 0 "guta" "diff" 3090 1 "native" "good" 1 FALSE
"31e8db6a" "guta8guta1" 1 0 0 "guta" "diff" 2859 1 "native" "good" 1 FALSE
"31e8db6a" "guta1guta1" 1 0 1 "guta" "same" 3142 1 "native" "good" 1 FALSE
"31e8db6a" "lita1lita1" 1 0 1 "lita" "same" 3288 1 "native" "good" 1 FALSE
"31e8db6a" "lita8lita8" 1 0 1 "lita" "same" 3282 1 "native" "good" 1 FALSE
"31e8db6a" "lita1lita8" 1 0 0 "lita" "diff" 2963 1 "native" "good" 1 FALSE
"31e8db6a" "lita8lita1" 1 0 0 "lita" "diff" 3296 1 "native" "good" 1 FALSE
"816f4f51" "guta1guta8" 0 0 0 "guta" "diff" 6678 1 "native" "good" 1 FALSE
"816f4f51" "guta8guta8" 0 0 1 "guta" "same" 4005 1 "native" "good" 1 FALSE
"816f4f51" "guta8guta1" 0 0 0 "guta" "diff" 4251 1 "native" "good" 1 FALSE
"816f4f51" "guta1guta1" 0 0 1 "guta" "same" 4309 1 "native" "good" 1 FALSE
"816f4f51" "lita1lita8" 0 0 0 "lita" "diff" 4428 1 "native" "good" 1 FALSE
"816f4f51" "lita8lita1" 0 0 0 "lita" "diff" 5080 1 "native" "good" 1 FALSE
"816f4f51" "lita1lita1" 0 0 1 "lita" "same" 5333 1 "native" "good" 1 FALSE
"816f4f51" "lita8lita8" 0 0 1 "lita" "same" 4137 1 "native" "good" 1 FALSE
"816f4f51" "guta1guta8" 1 0 0 "guta" "diff" 3691 1 "native" "good" 1 FALSE
"816f4f51" "guta8guta8" 1 0 1 "guta" "same" 3136 1 "native" "good" 1 FALSE
"816f4f51" "guta1guta1" 1 0 1 "guta" "same" 2985 1 "native" "good" 1 FALSE
"816f4f51" "guta8guta1" 1 0 0 "guta" "diff" 4786 1 "native" "good" 1 FALSE
"816f4f51" "lita1lita8" 1 0 0 "lita" "diff" 3450 1 "native" "good" 1 FALSE
"816f4f51" "lita8lita8" 1 0 1 "lita" "same" 2741 1 "native" "good" 1 FALSE
"816f4f51" "lita1lita1" 1 0 1 "lita" "same" 2894 1 "native" "good" 1 FALSE
"816f4f51" "lita8lita1" 1 0 0 "lita" "diff" 3380 1 "native" "good" 1 FALSE
"8a502622" "guta1guta1" 0 0 1 "guta" "same" 5714 1 "native" "good" 1 FALSE
"8a502622" "guta1guta8" 0 1 1 "guta" "diff" 9720 1 "native" "good" 1 FALSE
"8a502622" "guta8guta1" 0 0 0 "guta" "diff" 3861 1 "native" "good" 1 FALSE
"8a502622" "guta8guta8" 0 0 1 "guta" "same" 5270 1 "native" "good" 1 FALSE
"8a502622" "lita1lita8" 0 0 0 "lita" "diff" 3380 1 "native" "good" 1 FALSE
"8a502622" "lita8lita8" 0 0 1 "lita" "same" 4538 1 "native" "good" 1 FALSE
"8a502622" "lita8lita1" 0 0 0 "lita" "diff" 6762 1 "native" "good" 1 FALSE
"8a502622" "lita1lita1" 0 0 1 "lita" "same" 4092 1 "native" "good" 1 FALSE
"8a502622" "guta8guta1" 1 0 0 "guta" "diff" 2239 1 "native" "good" 1 FALSE
"8a502622" "guta8guta8" 1 0 1 "guta" "same" 4417 1 "native" "good" 1 FALSE
"8a502622" "guta1guta1" 1 0 1 "guta" "same" 2385 1 "native" "good" 1 FALSE
"8a502622" "guta1guta8" 1 0 0 "guta" "diff" 2041 1 "native" "good" 1 FALSE
"8a502622" "lita1lita1" 1 0 1 "lita" "same" 3914 1 "native" "good" 1 FALSE
"8a502622" "lita8lita1" 1 0 0 "lita" "diff" 2121 1 "native" "good" 1 FALSE
"8a502622" "lita8lita8" 1 0 1 "lita" "same" 2403 1 "native" "good" 1 FALSE
"8a502622" "lita1lita8" 1 0 0 "lita" "diff" 2047 1 "native" "good" 1 FALSE
"27649b2d" "guta1guta8" 0 0 0 "guta" "diff" 3277 1 "native" "good" 1 FALSE
"27649b2d" "guta1guta1" 0 0 1 "guta" "same" 3103 1 "native" "good" 1 FALSE
"27649b2d" "guta8guta1" 0 1 1 "guta" "diff" 6128 1 "native" "good" 1 FALSE
"27649b2d" "guta8guta8" 0 0 1 "guta" "same" 3053 1 "native" "good" 1 FALSE
"27649b2d" "lita8lita1" 0 0 0 "lita" "diff" 5110 1 "native" "good" 1 FALSE
"27649b2d" "lita1lita1" 0 0 1 "lita" "same" 3095 1 "native" "good" 1 FALSE
"27649b2d" "lita1lita8" 0 1 1 "lita" "diff" 4780 1 "native" "good" 1 FALSE
"27649b2d" "lita8lita8" 0 0 1 "lita" "same" 3469 1 "native" "good" 1 FALSE
"27649b2d" "guta8guta1" 1 0 0 "guta" "diff" 3477 1 "native" "good" 1 FALSE
"27649b2d" "guta1guta1" 1 0 1 "guta" "same" 3051 1 "native" "good" 1 FALSE
"27649b2d" "guta1guta8" 1 0 0 "guta" "diff" 3171 1 "native" "good" 1 FALSE
"27649b2d" "guta8guta8" 1 0 1 "guta" "same" 2576 1 "native" "good" 1 FALSE
"27649b2d" "lita8lita1" 1 0 0 "lita" "diff" 3386 1 "native" "good" 1 FALSE
"27649b2d" "lita1lita1" 1 0 1 "lita" "same" 2741 1 "native" "good" 1 FALSE
"27649b2d" "lita8lita8" 1 0 1 "lita" "same" 3390 1 "native" "good" 1 FALSE
"27649b2d" "lita1lita8" 1 0 0 "lita" "diff" 2633 1 "native" "good" 1 FALSE
"88ce735" "guta1guta1" 0 0 1 "guta" "same" 2952 1 "native" "good" 1 FALSE
"88ce735" "guta8guta8" 0 0 1 "guta" "same" 3424 1 "native" "good" 1 FALSE
"88ce735" "guta1guta8" 0 1 1 "guta" "diff" 3685 1 "native" "good" 1 FALSE
"88ce735" "guta8guta1" 0 1 1 "guta" "diff" 3190 1 "native" "good" 1 FALSE
"88ce735" "lita8lita8" 0 0 1 "lita" "same" 3341 1 "native" "good" 1 FALSE
"88ce735" "lita1lita8" 0 1 1 "lita" "diff" 3054 1 "native" "good" 1 FALSE
"88ce735" "lita1lita1" 0 0 1 "lita" "same" 3107 1 "native" "good" 1 FALSE
"88ce735" "lita8lita1" 0 1 1 "lita" "diff" 4684 1 "native" "good" 1 FALSE
"88ce735" "guta8guta8" 1 0 1 "guta" "same" 2644 1 "native" "good" 1 FALSE
"88ce735" "guta1guta8" 1 1 1 "guta" "diff" 3091 1 "native" "good" 1 FALSE
"88ce735" "guta8guta1" 1 1 1 "guta" "diff" 2986 1 "native" "good" 1 FALSE
"88ce735" "guta1guta1" 1 0 1 "guta" "same" 2583 1 "native" "good" 1 FALSE
"88ce735" "lita8lita1" 1 1 1 "lita" "diff" 2952 1 "native" "good" 1 FALSE
"88ce735" "lita8lita8" 1 0 1 "lita" "same" 2634 1 "native" "good" 1 FALSE
"88ce735" "lita1lita1" 1 0 1 "lita" "same" 2985 1 "native" "good" 1 FALSE
"88ce735" "lita1lita8" 1 1 1 "lita" "diff" 2821 1 "native" "good" 1 FALSE
"1e23470c" "guta1guta1" 0 0 1 "guta" "same" 3505 1 "native" "good" 1 FALSE
"1e23470c" "guta8guta8" 0 0 1 "guta" "same" 3641 1 "native" "good" 1 FALSE
"1e23470c" "guta8guta1" 0 0 0 "guta" "diff" 3851 1 "native" "good" 1 FALSE
"1e23470c" "guta1guta8" 0 1 1 "guta" "diff" 4140 1 "native" "good" 1 FALSE
"1e23470c" "lita8lita8" 0 0 1 "lita" "same" 3622 1 "native" "good" 1 FALSE
"1e23470c" "lita1lita1" 0 0 1 "lita" "same" 3617 1 "native" "good" 1 FALSE
"1e23470c" "lita8lita1" 0 1 1 "lita" "diff" 4028 1 "native" "good" 1 FALSE
"1e23470c" "lita1lita8" 0 1 1 "lita" "diff" 3850 1 "native" "good" 1 FALSE
"1e23470c" "guta8guta1" 1 1 1 "guta" "diff" 3229 1 "native" "good" 1 FALSE
"1e23470c" "guta1guta8" 1 1 1 "guta" "diff" 3095 1 "native" "good" 1 FALSE
"1e23470c" "guta1guta1" 1 0 1 "guta" "same" 3436 1 "native" "good" 1 FALSE
"1e23470c" "guta8guta8" 1 0 1 "guta" "same" 2950 1 "native" "good" 1 FALSE
"1e23470c" "lita1lita1" 1 0 1 "lita" "same" 3078 1 "native" "good" 1 FALSE
"1e23470c" "lita8lita1" 1 1 1 "lita" "diff" 2902 1 "native" "good" 1 FALSE
"1e23470c" "lita8lita8" 1 0 1 "lita" "same" 3423 1 "native" "good" 1 FALSE
"1e23470c" "lita1lita8" 1 1 1 "lita" "diff" 3462 1 "native" "good" 1 FALSE
"2c64ebc6" "guta1guta8" 0 0 0 "guta" "diff" 3453 0.875 "native" "good" 1 FALSE
"2c64ebc6" "guta1guta1" 0 0 1 "guta" "same" 3004 0.875 "native" "good" 1 FALSE
"2c64ebc6" "guta8guta1" 0 1 1 "guta" "diff" 4450 0.875 "native" "good" 1 FALSE
"2c64ebc6" "guta8guta8" 0 0 1 "guta" "same" 3228 0.875 "native" "good" 1 FALSE
"2c64ebc6" "lita1lita8" 0 1 1 "lita" "diff" 4076 0.875 "native" "good" 1 FALSE
"2c64ebc6" "lita1lita1" 0 0 1 "lita" "same" 2930 0.875 "native" "good" 1 FALSE
"2c64ebc6" "lita8lita8" 0 1 0 "lita" "same" 9638 0.875 "native" "good" 1 FALSE
"2c64ebc6" "lita8lita1" 0 0 0 "lita" "diff" 5067 0.875 "native" "good" 1 FALSE
"2c64ebc6" "guta1guta8" 1 1 1 "guta" "diff" 3108 0.875 "native" "good" 1 FALSE
"2c64ebc6" "guta1guta1" 1 0 1 "guta" "same" 2559 0.875 "native" "good" 1 FALSE
"2c64ebc6" "guta8guta8" 1 0 1 "guta" "same" 2591 0.875 "native" "good" 1 FALSE
"2c64ebc6" "guta8guta1" 1 0 0 "guta" "diff" 2744 0.875 "native" "good" 1 FALSE
"2c64ebc6" "lita1lita8" 1 0 0 "lita" "diff" 2823 0.875 "native" "good" 1 FALSE
"2c64ebc6" "lita1lita1" 1 0 1 "lita" "same" 2551 0.875 "native" "good" 1 FALSE
"2c64ebc6" "lita8lita1" 1 1 1 "lita" "diff" 2753 0.875 "native" "good" 1 FALSE
"2c64ebc6" "lita8lita8" 1 0 1 "lita" "same" 4864 0.875 "native" "good" 1 FALSE
"1efc0996" "guta1guta1" 0 0 1 "guta" "same" 3245 1 "native" "good" 1 FALSE
"1efc0996" "guta8guta8" 0 0 1 "guta" "same" 2953 1 "native" "good" 1 FALSE
"1efc0996" "guta1guta8" 0 0 0 "guta" "diff" 2923 1 "native" "good" 1 FALSE
"1efc0996" "guta8guta1" 0 0 0 "guta" "diff" 3259 1 "native" "good" 1 FALSE
"1efc0996" "lita8lita8" 0 0 1 "lita" "same" 3478 1 "native" "good" 1 FALSE
"1efc0996" "lita8lita1" 0 0 0 "lita" "diff" 3154 1 "native" "good" 1 FALSE
"1efc0996" "lita1lita8" 0 0 0 "lita" "diff" 3036 1 "native" "good" 1 FALSE
"1efc0996" "lita1lita1" 0 0 1 "lita" "same" 3373 1 "native" "good" 1 FALSE
"1efc0996" "guta8guta8" 1 0 1 "guta" "same" 2747 1 "native" "good" 1 FALSE
"1efc0996" "guta1guta1" 1 0 1 "guta" "same" 2781 1 "native" "good" 1 FALSE
"1efc0996" "guta8guta1" 1 0 0 "guta" "diff" 2886 1 "native" "good" 1 FALSE
"1efc0996" "guta1guta8" 1 0 0 "guta" "diff" 2775 1 "native" "good" 1 FALSE
"1efc0996" "lita8lita1" 1 0 0 "lita" "diff" 2803 1 "native" "good" 1 FALSE
"1efc0996" "lita1lita8" 1 0 0 "lita" "diff" 2786 1 "native" "good" 1 FALSE
"1efc0996" "lita8lita8" 1 0 1 "lita" "same" 2869 1 "native" "good" 1 FALSE
"1efc0996" "lita1lita1" 1 0 1 "lita" "same" 2744 1 "native" "good" 1 FALSE
"69ae150a" "guta8guta8" 0 0 1 "guta" "same" 3431 1 "native" "good" 1 FALSE
"69ae150a" "guta1guta8" 0 1 1 "guta" "diff" 8419 1 "native" "good" 1 FALSE
"69ae150a" "guta1guta1" 0 0 1 "guta" "same" 3414 1 "native" "good" 1 FALSE
"69ae150a" "guta8guta1" 0 0 0 "guta" "diff" 5217 1 "native" "good" 1 FALSE
"69ae150a" "lita1lita1" 0 0 1 "lita" "same" 3090 1 "native" "good" 1 FALSE
"69ae150a" "lita1lita8" 0 0 0 "lita" "diff" 6596 1 "native" "good" 1 FALSE
"69ae150a" "lita8lita1" 0 0 0 "lita" "diff" 5461 1 "native" "good" 1 FALSE
"69ae150a" "lita8lita8" 0 0 1 "lita" "same" 3535 1 "native" "good" 1 FALSE
"69ae150a" "guta1guta1" 1 0 1 "guta" "same" 2895 1 "native" "good" 1 FALSE
"69ae150a" "guta1guta8" 1 0 0 "guta" "diff" 2962 1 "native" "good" 1 FALSE
"69ae150a" "guta8guta8" 1 0 1 "guta" "same" 3022 1 "native" "good" 1 FALSE
"69ae150a" "guta8guta1" 1 0 0 "guta" "diff" 2763 1 "native" "good" 1 FALSE
"69ae150a" "lita8lita1" 1 0 0 "lita" "diff" 3187 1 "native" "good" 1 FALSE
"69ae150a" "lita1lita8" 1 0 0 "lita" "diff" 3500 1 "native" "good" 1 FALSE
"69ae150a" "lita1lita1" 1 0 1 "lita" "same" 2841 1 "native" "good" 1 FALSE
"69ae150a" "lita8lita8" 1 0 1 "lita" "same" 2785 1 "native" "good" 1 FALSE
"6dfa1f9" "guta8guta8" 0 0 1 "guta" "same" 4770 0.875 "native" "good" 1 FALSE
"6dfa1f9" "guta1guta1" 0 0 1 "guta" "same" 4162 0.875 "native" "good" 1 FALSE
"6dfa1f9" "guta1guta8" 0 1 1 "guta" "diff" 4095 0.875 "native" "good" 1 FALSE
"6dfa1f9" "guta8guta1" 0 1 1 "guta" "diff" 3736 0.875 "native" "good" 1 FALSE
"6dfa1f9" "lita1lita8" 0 1 1 "lita" "diff" 3768 0.875 "native" "good" 1 FALSE
"6dfa1f9" "lita8lita1" 0 1 1 "lita" "diff" 4046 0.875 "native" "good" 1 FALSE
"6dfa1f9" "lita8lita8" 0 0 1 "lita" "same" 4310 0.875 "native" "good" 1 FALSE
"6dfa1f9" "lita1lita1" 0 0 1 "lita" "same" 3645 0.875 "native" "good" 1 FALSE
"6dfa1f9" "guta1guta1" 1 0 1 "guta" "same" 3661 0.875 "native" "good" 1 FALSE
"6dfa1f9" "guta1guta8" 1 1 1 "guta" "diff" 2841 0.875 "native" "good" 1 FALSE
"6dfa1f9" "guta8guta1" 1 1 1 "guta" "diff" 3282 0.875 "native" "good" 1 FALSE
"6dfa1f9" "guta8guta8" 1 0 1 "guta" "same" 3214 0.875 "native" "good" 1 FALSE
"6dfa1f9" "lita8lita1" 1 1 1 "lita" "diff" 3450 0.875 "native" "good" 1 FALSE
"6dfa1f9" "lita1lita1" 1 0 1 "lita" "same" 3074 0.875 "native" "good" 1 FALSE
"6dfa1f9" "lita8lita8" 1 0 1 "lita" "same" 3400 0.875 "native" "good" 1 FALSE
"6dfa1f9" "lita1lita8" 1 1 1 "lita" "diff" 2860 0.875 "native" "good" 1 FALSE
"b6b225d9" "guta1guta1" 0 0 1 "guta" "same" 3893 1 "native" "good" 1 FALSE
"b6b225d9" "guta1guta8" 0 0 0 "guta" "diff" 3521 1 "native" "good" 1 FALSE
"b6b225d9" "guta8guta1" 0 0 0 "guta" "diff" 3588 1 "native" "good" 1 FALSE
"b6b225d9" "guta8guta8" 0 0 1 "guta" "same" 3376 1 "native" "good" 1 FALSE
"b6b225d9" "lita1lita8" 0 0 0 "lita" "diff" 3997 1 "native" "good" 1 FALSE
"b6b225d9" "lita8lita1" 0 0 0 "lita" "diff" 3733 1 "native" "good" 1 FALSE
"b6b225d9" "lita1lita1" 0 0 1 "lita" "same" 3248 1 "native" "good" 1 FALSE
"b6b225d9" "lita8lita8" 0 0 1 "lita" "same" 3396 1 "native" "good" 1 FALSE
"b6b225d9" "guta1guta8" 1 0 0 "guta" "diff" 2888 1 "native" "good" 1 FALSE
"b6b225d9" "guta1guta1" 1 0 1 "guta" "same" 2764 1 "native" "good" 1 FALSE
"b6b225d9" "guta8guta8" 1 0 1 "guta" "same" 2824 1 "native" "good" 1 FALSE
"b6b225d9" "guta8guta1" 1 0 0 "guta" "diff" 2625 1 "native" "good" 1 FALSE
"b6b225d9" "lita8lita1" 1 0 0 "lita" "diff" 3007 1 "native" "good" 1 FALSE
"b6b225d9" "lita8lita8" 1 0 1 "lita" "same" 3161 1 "native" "good" 1 FALSE
"b6b225d9" "lita1lita8" 1 0 0 "lita" "diff" 2792 1 "native" "good" 1 FALSE
"b6b225d9" "lita1lita1" 1 0 1 "lita" "same" 2782 1 "native" "good" 1 FALSE
"f3962d90" "guta1guta1" 0 0 1 "guta" "same" 3010 1 "native" "good" 1 FALSE
"f3962d90" "guta8guta1" 0 1 1 "guta" "diff" 3837 1 "native" "good" 1 FALSE
"f3962d90" "guta1guta8" 0 1 1 "guta" "diff" 2963 1 "native" "good" 1 FALSE
"f3962d90" "guta8guta8" 0 1 0 "guta" "same" 3278 1 "native" "good" 1 FALSE
"f3962d90" "lita1lita8" 0 0 0 "lita" "diff" 3819 1 "native" "good" 1 FALSE
"f3962d90" "lita8lita8" 0 0 1 "lita" "same" 4005 1 "native" "good" 1 FALSE
"f3962d90" "lita1lita1" 0 0 1 "lita" "same" 2939 1 "native" "good" 1 FALSE
"f3962d90" "lita8lita1" 0 1 1 "lita" "diff" 3323 1 "native" "good" 1 FALSE
"f3962d90" "guta1guta8" 1 0 0 "guta" "diff" 3352 1 "native" "good" 1 FALSE
"f3962d90" "guta1guta1" 1 0 1 "guta" "same" 2754 1 "native" "good" 1 FALSE
"f3962d90" "guta8guta1" 1 0 0 "guta" "diff" 2940 1 "native" "good" 1 FALSE
"f3962d90" "guta8guta8" 1 0 1 "guta" "same" 3151 1 "native" "good" 1 FALSE
"f3962d90" "lita1lita1" 1 1 0 "lita" "same" 2858 1 "native" "good" 1 FALSE
"f3962d90" "lita1lita8" 1 1 1 "lita" "diff" 3210 1 "native" "good" 1 FALSE
"f3962d90" "lita8lita1" 1 1 1 "lita" "diff" 3725 1 "native" "good" 1 FALSE
"f3962d90" "lita8lita8" 1 0 1 "lita" "same" 3065 1 "native" "good" 1 FALSE
"ccda4f6e" "guta8guta1" 0 0 0 "guta" "diff" 8114 1 "native" "good" 1 FALSE
"ccda4f6e" "guta1guta8" 0 1 1 "guta" "diff" 3479 1 "native" "good" 1 FALSE
"ccda4f6e" "guta8guta8" 0 0 1 "guta" "same" 3391 1 "native" "good" 1 FALSE
"ccda4f6e" "guta1guta1" 0 0 1 "guta" "same" 7187 1 "native" "good" 1 FALSE
"ccda4f6e" "lita1lita8" 0 1 1 "lita" "diff" 3844 1 "native" "good" 1 FALSE
"ccda4f6e" "lita8lita8" 0 0 1 "lita" "same" 3214 1 "native" "good" 1 FALSE
"ccda4f6e" "lita1lita1" 0 0 1 "lita" "same" 3665 1 "native" "good" 1 FALSE
"ccda4f6e" "lita8lita1" 0 1 1 "lita" "diff" 3344 1 "native" "good" 1 FALSE
"ccda4f6e" "guta1guta1" 1 0 1 "guta" "same" 2800 1 "native" "good" 1 FALSE
"ccda4f6e" "guta8guta8" 1 0 1 "guta" "same" 2732 1 "native" "good" 1 FALSE
"ccda4f6e" "guta8guta1" 1 0 0 "guta" "diff" 2882 1 "native" "good" 1 FALSE
"ccda4f6e" "guta1guta8" 1 0 0 "guta" "diff" 3767 1 "native" "good" 1 FALSE
"ccda4f6e" "lita1lita8" 1 0 0 "lita" "diff" 2853 1 "native" "good" 1 FALSE
"ccda4f6e" "lita8lita1" 1 0 0 "lita" "diff" 3680 1 "native" "good" 1 FALSE
"ccda4f6e" "lita8lita8" 1 0 1 "lita" "same" 2789 1 "native" "good" 1 FALSE
"ccda4f6e" "lita1lita1" 1 0 1 "lita" "same" 3026 1 "native" "good" 1 FALSE
"c00127be" "guta1guta1" 0 1 0 "guta" "same" 4445 0.75 "native" "good" 1 FALSE
"c00127be" "guta8guta1" 0 1 1 "guta" "diff" 3714 0.75 "native" "good" 1 FALSE
"c00127be" "guta8guta8" 0 0 1 "guta" "same" 2856 0.75 "native" "good" 1 FALSE
"c00127be" "guta1guta8" 0 1 1 "guta" "diff" 3311 0.75 "native" "good" 1 FALSE
"c00127be" "lita8lita1" 0 0 0 "lita" "diff" 2908 0.75 "native" "good" 1 FALSE
"c00127be" "lita1lita1" 0 0 1 "lita" "same" 3604 0.75 "native" "good" 1 FALSE
"c00127be" "lita1lita8" 0 1 1 "lita" "diff" 3240 0.75 "native" "good" 1 FALSE
"c00127be" "lita8lita8" 0 0 1 "lita" "same" 3676 0.75 "native" "good" 1 FALSE
"c00127be" "guta1guta8" 1 0 0 "guta" "diff" 3205 0.75 "native" "good" 1 FALSE
"c00127be" "guta8guta8" 1 0 1 "guta" "same" 2531 0.75 "native" "good" 1 FALSE
"c00127be" "guta1guta1" 1 0 1 "guta" "same" 2377 0.75 "native" "good" 1 FALSE
"c00127be" "guta8guta1" 1 0 0 "guta" "diff" 2601 0.75 "native" "good" 1 FALSE
"c00127be" "lita1lita1" 1 1 0 "lita" "same" 3762 0.75 "native" "good" 1 FALSE
"c00127be" "lita8lita8" 1 0 1 "lita" "same" 3142 0.75 "native" "good" 1 FALSE
"c00127be" "lita8lita1" 1 0 0 "lita" "diff" 2359 0.75 "native" "good" 1 FALSE
"c00127be" "lita1lita8" 1 0 0 "lita" "diff" 2376 0.75 "native" "good" 1 FALSE
"f44d3299" "guta1guta1" 0 0 1 "guta" "same" 3209 1 "native" "good" 5 FALSE
"f44d3299" "guta1guta1" 1 0 1 "guta" "same" 2691 1 "native" "good" 5 FALSE
"f44d3299" "guta1guta8" 0 1 1 "guta" "diff" 3879 1 "native" "good" 5 FALSE
"f44d3299" "guta1guta8" 1 1 1 "guta" "diff" 3244 1 "native" "good" 5 FALSE
"f44d3299" "guta8guta1" 0 0 0 "guta" "diff" 5602 1 "native" "good" 5 FALSE
"f44d3299" "guta8guta1" 1 1 1 "guta" "diff" 2990 1 "native" "good" 5 FALSE
"f44d3299" "guta8guta8" 0 0 1 "guta" "same" 3659 1 "native" "good" 5 FALSE
"f44d3299" "guta8guta8" 1 0 1 "guta" "same" 2758 1 "native" "good" 5 FALSE
"f44d3299" "lita1lita1" 0 0 1 "lita" "same" 4150 1 "native" "good" 5 FALSE
"f44d3299" "lita1lita1" 1 0 1 "lita" "same" 2673 1 "native" "good" 5 FALSE
"f44d3299" "lita1lita8" 0 1 1 "lita" "diff" 5499 1 "native" "good" 5 FALSE
"f44d3299" "lita1lita8" 1 1 1 "lita" "diff" 2911 1 "native" "good" 5 FALSE
"f44d3299" "lita8lita1" 0 0 0 "lita" "diff" 4892 1 "native" "good" 5 FALSE
"f44d3299" "lita8lita1" 1 0 0 "lita" "diff" 2555 1 "native" "good" 5 FALSE
"f44d3299" "lita8lita8" 0 0 1 "lita" "same" 3405 1 "native" "good" 5 FALSE
"f44d3299" "lita8lita8" 1 0 1 "lita" "same" 2617 1 "native" "good" 5 FALSE
"7707d322" "guta1guta1" 0 0 1 "guta" "same" 3911 1 "native" "good" 5 FALSE
"7707d322" "guta1guta1" 1 0 1 "guta" "same" 4430 1 "native" "good" 5 FALSE
"7707d322" "guta1guta8" 0 0 0 "guta" "diff" 4022 1 "native" "good" 5 FALSE
"7707d322" "guta1guta8" 1 0 0 "guta" "diff" 3619 1 "native" "good" 5 FALSE
"7707d322" "guta8guta1" 0 0 0 "guta" "diff" 3728 1 "native" "good" 5 FALSE
"7707d322" "guta8guta1" 1 0 0 "guta" "diff" 3346 1 "native" "good" 5 FALSE
"7707d322" "guta8guta8" 0 0 1 "guta" "same" 3976 1 "native" "good" 5 FALSE
"7707d322" "guta8guta8" 1 0 1 "guta" "same" 3552 1 "native" "good" 5 FALSE
"7707d322" "lita1lita1" 0 0 1 "lita" "same" 3621 1 "native" "good" 5 FALSE
"7707d322" "lita1lita1" 1 0 1 "lita" "same" 3457 1 "native" "good" 5 FALSE
"7707d322" "lita1lita8" 0 0 0 "lita" "diff" 3894 1 "native" "good" 5 FALSE
"7707d322" "lita1lita8" 1 0 0 "lita" "diff" 3530 1 "native" "good" 5 FALSE
"7707d322" "lita8lita1" 0 0 0 "lita" "diff" 4486 1 "native" "good" 5 FALSE
"7707d322" "lita8lita1" 1 0 0 "lita" "diff" 3597 1 "native" "good" 5 FALSE
"7707d322" "lita8lita8" 0 0 1 "lita" "same" 3987 1 "native" "good" 5 FALSE
"7707d322" "lita8lita8" 1 0 1 "lita" "same" 3898 1 "native" "good" 5 FALSE
"f4499841" "guta1guta1" 0 0 1 "guta" "same" 3540 1 "native" "good" 5 FALSE
"f4499841" "guta1guta1" 1 0 1 "guta" "same" 4549 1 "native" "good" 5 FALSE
"f4499841" "guta1guta8" 0 1 1 "guta" "diff" 3814 1 "native" "good" 5 FALSE
"f4499841" "guta1guta8" 1 1 1 "guta" "diff" 3905 1 "native" "good" 5 FALSE
"f4499841" "guta8guta1" 0 1 1 "guta" "diff" 7720 1 "native" "good" 5 FALSE
"f4499841" "guta8guta1" 1 1 1 "guta" "diff" 6759 1 "native" "good" 5 FALSE
"f4499841" "guta8guta8" 0 0 1 "guta" "same" 3582 1 "native" "good" 5 FALSE
"f4499841" "guta8guta8" 1 0 1 "guta" "same" 3794 1 "native" "good" 5 FALSE
"f4499841" "lita1lita1" 0 0 1 "lita" "same" 4364 1 "native" "good" 5 FALSE
"f4499841" "lita1lita1" 1 0 1 "lita" "same" 3541 1 "native" "good" 5 FALSE
"f4499841" "lita1lita8" 0 1 1 "lita" "diff" 5697 1 "native" "good" 5 FALSE
"f4499841" "lita1lita8" 1 1 1 "lita" "diff" 4211 1 "native" "good" 5 FALSE
"f4499841" "lita8lita1" 0 1 1 "lita" "diff" 3525 1 "native" "good" 5 FALSE
"f4499841" "lita8lita1" 1 1 1 "lita" "diff" 3658 1 "native" "good" 5 FALSE
"f4499841" "lita8lita8" 0 0 1 "lita" "same" 4983 1 "native" "good" 5 FALSE
"f4499841" "lita8lita8" 1 0 1 "lita" "same" 3627 1 "native" "good" 5 FALSE
"1cc6cab7" "guta1guta1" 0 0 1 "guta" "same" 3719 1 "native" "good" 5 FALSE
"1cc6cab7" "guta1guta1" 1 0 1 "guta" "same" 3316 1 "native" "good" 5 FALSE
"1cc6cab7" "guta1guta8" 0 1 1 "guta" "diff" 3398 1 "native" "good" 5 FALSE
"1cc6cab7" "guta1guta8" 1 1 1 "guta" "diff" 3191 1 "native" "good" 5 FALSE
"1cc6cab7" "guta8guta1" 0 1 1 "guta" "diff" 3623 1 "native" "good" 5 FALSE
"1cc6cab7" "guta8guta1" 1 1 1 "guta" "diff" 3101 1 "native" "good" 5 FALSE
"1cc6cab7" "guta8guta8" 0 0 1 "guta" "same" 3663 1 "native" "good" 5 FALSE
"1cc6cab7" "guta8guta8" 1 0 1 "guta" "same" 2838 1 "native" "good" 5 FALSE
"1cc6cab7" "lita1lita1" 0 0 1 "lita" "same" 3734 1 "native" "good" 5 FALSE
"1cc6cab7" "lita1lita1" 1 0 1 "lita" "same" 3198 1 "native" "good" 5 FALSE
"1cc6cab7" "lita1lita8" 0 1 1 "lita" "diff" 3279 1 "native" "good" 5 FALSE
"1cc6cab7" "lita1lita8" 1 1 1 "lita" "diff" 2670 1 "native" "good" 5 FALSE
"1cc6cab7" "lita8lita1" 0 1 1 "lita" "diff" 3511 1 "native" "good" 5 FALSE
"1cc6cab7" "lita8lita1" 1 1 1 "lita" "diff" 3214 1 "native" "good" 5 FALSE
"1cc6cab7" "lita8lita8" 0 0 1 "lita" "same" 3888 1 "native" "good" 5 FALSE
"1cc6cab7" "lita8lita8" 1 0 1 "lita" "same" 2757 1 "native" "good" 5 FALSE
"6c981691" "guta1guta1" 0 0 1 "guta" "same" 3892 1 "native" "good" 5 FALSE
"6c981691" "guta1guta1" 1 0 1 "guta" "same" 3501 1 "native" "good" 5 FALSE
"6c981691" "guta1guta8" 0 0 0 "guta" "diff" 4018 1 "native" "good" 5 FALSE
"6c981691" "guta1guta8" 1 1 1 "guta" "diff" 3544 1 "native" "good" 5 FALSE
"6c981691" "guta8guta1" 0 0 0 "guta" "diff" 5079 1 "native" "good" 5 FALSE
"6c981691" "guta8guta1" 1 1 1 "guta" "diff" 3666 1 "native" "good" 5 FALSE
"6c981691" "guta8guta8" 0 0 1 "guta" "same" 4079 1 "native" "good" 5 FALSE
"6c981691" "guta8guta8" 1 0 1 "guta" "same" 3694 1 "native" "good" 5 FALSE
"6c981691" "lita1lita1" 0 0 1 "lita" "same" 3693 1 "native" "good" 5 FALSE
"6c981691" "lita1lita1" 1 0 1 "lita" "same" 3424 1 "native" "good" 5 FALSE
"6c981691" "lita1lita8" 0 1 1 "lita" "diff" 4187 1 "native" "good" 5 FALSE
"6c981691" "lita1lita8" 1 1 1 "lita" "diff" 3519 1 "native" "good" 5 FALSE
"6c981691" "lita8lita1" 0 1 1 "lita" "diff" 6476 1 "native" "good" 5 FALSE
"6c981691" "lita8lita1" 1 1 1 "lita" "diff" 3458 1 "native" "good" 5 FALSE
"6c981691" "lita8lita8" 0 0 1 "lita" "same" 3814 1 "native" "good" 5 FALSE
"6c981691" "lita8lita8" 1 0 1 "lita" "same" 3439 1 "native" "good" 5 FALSE
"4e2a3a7c" "guta1guta1" 0 0 1 "guta" "same" 3342 1 "native" "good" 5 FALSE
"4e2a3a7c" "guta1guta1" 1 0 1 "guta" "same" 4015 1 "native" "good" 5 FALSE
"4e2a3a7c" "guta1guta8" 0 1 1 "guta" "diff" 6259 1 "native" "good" 5 FALSE
"4e2a3a7c" "guta1guta8" 1 1 1 "guta" "diff" 4414 1 "native" "good" 5 FALSE
"4e2a3a7c" "guta8guta1" 0 0 0 "guta" "diff" 5198 1 "native" "good" 5 FALSE
"4e2a3a7c" "guta8guta1" 1 1 1 "guta" "diff" 4134 1 "native" "good" 5 FALSE
"4e2a3a7c" "guta8guta8" 0 0 1 "guta" "same" 4271 1 "native" "good" 5 FALSE
"4e2a3a7c" "guta8guta8" 1 0 1 "guta" "same" 3532 1 "native" "good" 5 FALSE
"4e2a3a7c" "lita1lita1" 0 0 1 "lita" "same" 3934 1 "native" "good" 5 FALSE
"4e2a3a7c" "lita1lita1" 1 0 1 "lita" "same" 3047 1 "native" "good" 5 FALSE
"4e2a3a7c" "lita1lita8" 0 1 1 "lita" "diff" 4142 1 "native" "good" 5 FALSE
"4e2a3a7c" "lita1lita8" 1 1 1 "lita" "diff" 4119 1 "native" "good" 5 FALSE
"4e2a3a7c" "lita8lita1" 0 0 0 "lita" "diff" 6949 1 "native" "good" 5 FALSE
"4e2a3a7c" "lita8lita1" 1 0 0 "lita" "diff" 4461 1 "native" "good" 5 FALSE
"4e2a3a7c" "lita8lita8" 0 0 1 "lita" "same" 4212 1 "native" "good" 5 FALSE
"4e2a3a7c" "lita8lita8" 1 0 1 "lita" "same" 3022 1 "native" "good" 5 FALSE
"176a745a" "guta1guta1" 0 0 1 "guta" "same" 4114 1 "native" "good" 5 FALSE
"176a745a" "guta1guta1" 1 0 1 "guta" "same" 5747 1 "native" "good" 5 FALSE
"176a745a" "guta1guta8" 0 0 0 "guta" "diff" 6065 1 "native" "good" 5 FALSE
"176a745a" "guta1guta8" 1 1 1 "guta" "diff" 4148 1 "native" "good" 5 FALSE
"176a745a" "guta8guta1" 0 1 1 "guta" "diff" 3665 1 "native" "good" 5 FALSE
"176a745a" "guta8guta1" 1 1 1 "guta" "diff" 3851 1 "native" "good" 5 FALSE
"176a745a" "guta8guta8" 0 0 1 "guta" "same" 3794 1 "native" "good" 5 FALSE
"176a745a" "guta8guta8" 1 0 1 "guta" "same" 3619 1 "native" "good" 5 FALSE
"176a745a" "lita1lita1" 0 0 1 "lita" "same" 4933 1 "native" "good" 5 FALSE
"176a745a" "lita1lita1" 1 0 1 "lita" "same" 3575 1 "native" "good" 5 FALSE
"176a745a" "lita1lita8" 0 0 0 "lita" "diff" 4309 1 "native" "good" 5 FALSE
"176a745a" "lita1lita8" 1 1 1 "lita" "diff" 4735 1 "native" "good" 5 FALSE
"176a745a" "lita8lita1" 0 1 1 "lita" "diff" 4862 1 "native" "good" 5 FALSE
"176a745a" "lita8lita1" 1 1 1 "lita" "diff" 3752 1 "native" "good" 5 FALSE
"176a745a" "lita8lita8" 0 0 1 "lita" "same" 3798 1 "native" "good" 5 FALSE
"176a745a" "lita8lita8" 1 0 1 "lita" "same" 3643 1 "native" "good" 5 FALSE
"704b530" "guta1guta1" 0 0 1 "guta" "same" 3249 1 "native" "good" 5 FALSE
"704b530" "guta1guta1" 1 0 1 "guta" "same" 3292 1 "native" "good" 5 FALSE
"704b530" "guta1guta8" 0 1 1 "guta" "diff" 4838 1 "native" "good" 5 FALSE
"704b530" "guta1guta8" 1 1 1 "guta" "diff" 3200 1 "native" "good" 5 FALSE
"704b530" "guta8guta1" 0 1 1 "guta" "diff" 4582 1 "native" "good" 5 FALSE
"704b530" "guta8guta1" 1 1 1 "guta" "diff" 2872 1 "native" "good" 5 FALSE
"704b530" "guta8guta8" 0 0 1 "guta" "same" 4774 1 "native" "good" 5 FALSE
"704b530" "guta8guta8" 1 0 1 "guta" "same" 3013 1 "native" "good" 5 FALSE
"704b530" "lita1lita1" 0 0 1 "lita" "same" 5060 1 "native" "good" 5 FALSE
"704b530" "lita1lita1" 1 0 1 "lita" "same" 2937 1 "native" "good" 5 FALSE
"704b530" "lita1lita8" 0 1 1 "lita" "diff" 4159 1 "native" "good" 5 FALSE
"704b530" "lita1lita8" 1 1 1 "lita" "diff" 3071 1 "native" "good" 5 FALSE
"704b530" "lita8lita1" 0 1 1 "lita" "diff" 4489 1 "native" "good" 5 FALSE
"704b530" "lita8lita1" 1 1 1 "lita" "diff" 3177 1 "native" "good" 5 FALSE
"704b530" "lita8lita8" 0 0 1 "lita" "same" 7632 1 "native" "good" 5 FALSE
"704b530" "lita8lita8" 1 0 1 "lita" "same" 3545 1 "native" "good" 5 FALSE
"a1ebe373" "guta1guta1" 0 0 1 "guta" "same" 3118 1 "native" "good" 3 FALSE
"a1ebe373" "guta1guta1" 1 0 1 "guta" "same" 2848 1 "native" "good" 3 FALSE
"a1ebe373" "guta1guta8" 0 0 0 "guta" "diff" 4493 1 "native" "good" 3 FALSE
"a1ebe373" "guta1guta8" 1 0 0 "guta" "diff" 3141 1 "native" "good" 3 FALSE
"a1ebe373" "guta8guta1" 0 0 0 "guta" "diff" 6789 1 "native" "good" 3 FALSE
"a1ebe373" "guta8guta1" 1 0 0 "guta" "diff" 2940 1 "native" "good" 3 FALSE
"a1ebe373" "guta8guta8" 0 0 1 "guta" "same" 3745 1 "native" "good" 3 FALSE
"a1ebe373" "guta8guta8" 1 0 1 "guta" "same" 2586 1 "native" "good" 3 FALSE
"a1ebe373" "lita1lita1" 0 0 1 "lita" "same" 3150 1 "native" "good" 3 FALSE
"a1ebe373" "lita1lita1" 1 0 1 "lita" "same" 2608 1 "native" "good" 3 FALSE
"a1ebe373" "lita1lita8" 0 0 0 "lita" "diff" 3480 1 "native" "good" 3 FALSE
"a1ebe373" "lita1lita8" 1 0 0 "lita" "diff" 2857 1 "native" "good" 3 FALSE
"a1ebe373" "lita8lita1" 0 0 0 "lita" "diff" 3939 1 "native" "good" 3 FALSE
"a1ebe373" "lita8lita1" 1 0 0 "lita" "diff" 3563 1 "native" "good" 3 FALSE
"a1ebe373" "lita8lita8" 0 0 1 "lita" "same" 3262 1 "native" "good" 3 FALSE
"a1ebe373" "lita8lita8" 1 0 1 "lita" "same" 2819 1 "native" "good" 3 FALSE
"79dec98d" "guta1guta1" 0 0 1 "guta" "same" 3830 1 "native" "good" 3 FALSE
"79dec98d" "guta1guta1" 1 0 1 "guta" "same" 2864 1 "native" "good" 3 FALSE
"79dec98d" "guta1guta8" 0 0 0 "guta" "diff" 3518 1 "native" "good" 3 FALSE
"79dec98d" "guta1guta8" 1 0 0 "guta" "diff" 3696 1 "native" "good" 3 FALSE
"79dec98d" "guta8guta1" 0 0 0 "guta" "diff" 26792 1 "native" "good" 3 FALSE
"79dec98d" "guta8guta1" 1 1 1 "guta" "diff" 5735 1 "native" "good" 3 FALSE
"79dec98d" "guta8guta8" 0 0 1 "guta" "same" 6940 1 "native" "good" 3 FALSE
"79dec98d" "guta8guta8" 1 0 1 "guta" "same" 10256 1 "native" "good" 3 FALSE
"79dec98d" "lita1lita1" 0 0 1 "lita" "same" 3278 1 "native" "good" 3 FALSE
"79dec98d" "lita1lita1" 1 0 1 "lita" "same" 3178 1 "native" "good" 3 FALSE
"79dec98d" "lita1lita8" 0 0 0 "lita" "diff" 4080 1 "native" "good" 3 FALSE
"79dec98d" "lita1lita8" 1 1 1 "lita" "diff" 3054 1 "native" "good" 3 FALSE
"79dec98d" "lita8lita1" 0 0 0 "lita" "diff" 4603 1 "native" "good" 3 FALSE
"79dec98d" "lita8lita1" 1 1 1 "lita" "diff" 3499 1 "native" "good" 3 FALSE
"79dec98d" "lita8lita8" 0 0 1 "lita" "same" 3498 1 "native" "good" 3 FALSE
"79dec98d" "lita8lita8" 1 0 1 "lita" "same" 4797 1 "native" "good" 3 FALSE
"769823c1" "guta1guta1" 0 0 1 "guta" "same" 2944 1 "native" "good" 3 FALSE
"769823c1" "guta1guta1" 1 0 1 "guta" "same" 4712 1 "native" "good" 3 FALSE
"769823c1" "guta1guta8" 0 1 1 "guta" "diff" 4088 1 "native" "good" 3 FALSE
"769823c1" "guta1guta8" 1 1 1 "guta" "diff" 5306 1 "native" "good" 3 FALSE
"769823c1" "guta8guta1" 0 1 1 "guta" "diff" 3905 1 "native" "good" 3 FALSE
"769823c1" "guta8guta1" 1 1 1 "guta" "diff" 3320 1 "native" "good" 3 FALSE
"769823c1" "guta8guta8" 0 0 1 "guta" "same" 3728 1 "native" "good" 3 FALSE
"769823c1" "guta8guta8" 1 0 1 "guta" "same" 3123 1 "native" "good" 3 FALSE
"769823c1" "lita1lita1" 0 0 1 "lita" "same" 3453 1 "native" "good" 3 FALSE
"769823c1" "lita1lita1" 1 0 1 "lita" "same" 3242 1 "native" "good" 3 FALSE
"769823c1" "lita1lita8" 0 1 1 "lita" "diff" 4159 1 "native" "good" 3 FALSE
"769823c1" "lita1lita8" 1 1 1 "lita" "diff" 3849 1 "native" "good" 3 FALSE
"769823c1" "lita8lita1" 0 1 1 "lita" "diff" 4967 1 "native" "good" 3 FALSE
"769823c1" "lita8lita1" 1 1 1 "lita" "diff" 3715 1 "native" "good" 3 FALSE
"769823c1" "lita8lita8" 0 0 1 "lita" "same" 4454 1 "native" "good" 3 FALSE
"769823c1" "lita8lita8" 1 0 1 "lita" "same" 3551 1 "native" "good" 3 FALSE
"f3b8be6" "guta1guta1" 0 0 1 "guta" "same" 4368 1 "native" "good" 3 FALSE
"f3b8be6" "guta1guta1" 1 0 1 "guta" "same" 2787 1 "native" "good" 3 FALSE
"f3b8be6" "guta1guta8" 0 0 0 "guta" "diff" 4564 1 "native" "good" 3 FALSE
"f3b8be6" "guta1guta8" 1 1 1 "guta" "diff" 3031 1 "native" "good" 3 FALSE
"f3b8be6" "guta8guta1" 0 0 0 "guta" "diff" 5543 1 "native" "good" 3 FALSE
"f3b8be6" "guta8guta1" 1 1 1 "guta" "diff" 3185 1 "native" "good" 3 FALSE
"f3b8be6" "guta8guta8" 0 0 1 "guta" "same" 4442 1 "native" "good" 3 FALSE
"f3b8be6" "guta8guta8" 1 0 1 "guta" "same" 2626 1 "native" "good" 3 FALSE
"f3b8be6" "lita1lita1" 0 0 1 "lita" "same" 6845 1 "native" "good" 3 FALSE
"f3b8be6" "lita1lita1" 1 0 1 "lita" "same" 3446 1 "native" "good" 3 FALSE
"f3b8be6" "lita1lita8" 0 1 1 "lita" "diff" 4415 1 "native" "good" 3 FALSE
"f3b8be6" "lita1lita8" 1 1 1 "lita" "diff" 3122 1 "native" "good" 3 FALSE
"f3b8be6" "lita8lita1" 0 0 0 "lita" "diff" 5407 1 "native" "good" 3 FALSE
"f3b8be6" "lita8lita1" 1 1 1 "lita" "diff" 2968 1 "native" "good" 3 FALSE
"f3b8be6" "lita8lita8" 0 1 0 "lita" "same" 5198 1 "native" "good" 3 FALSE
"f3b8be6" "lita8lita8" 1 0 1 "lita" "same" 2521 1 "native" "good" 3 FALSE
"895a78dd" "guta1guta1" 0 0 1 "guta" "same" 3264 1 "native" "good" 3 FALSE
"895a78dd" "guta1guta1" 1 1 0 "guta" "same" 3555 1 "native" "good" 3 FALSE
"895a78dd" "guta1guta8" 0 0 0 "guta" "diff" 3174 1 "native" "good" 3 FALSE
"895a78dd" "guta1guta8" 1 1 1 "guta" "diff" 3238 1 "native" "good" 3 FALSE
"895a78dd" "guta8guta1" 0 0 0 "guta" "diff" 3636 1 "native" "good" 3 FALSE
"895a78dd" "guta8guta1" 1 0 0 "guta" "diff" 3503 1 "native" "good" 3 FALSE
"895a78dd" "guta8guta8" 0 0 1 "guta" "same" 3324 1 "native" "good" 3 FALSE
"895a78dd" "guta8guta8" 1 0 1 "guta" "same" 3186 1 "native" "good" 3 FALSE
"895a78dd" "lita1lita1" 0 0 1 "lita" "same" 3100 1 "native" "good" 3 FALSE
"895a78dd" "lita1lita1" 1 0 1 "lita" "same" 3090 1 "native" "good" 3 FALSE
"895a78dd" "lita1lita8" 0 0 0 "lita" "diff" 3645 1 "native" "good" 3 FALSE
"895a78dd" "lita1lita8" 1 1 1 "lita" "diff" 3414 1 "native" "good" 3 FALSE
"895a78dd" "lita8lita1" 0 0 0 "lita" "diff" 4621 1 "native" "good" 3 FALSE
"895a78dd" "lita8lita1" 1 1 1 "lita" "diff" 3189 1 "native" "good" 3 FALSE
"895a78dd" "lita8lita8" 0 0 1 "lita" "same" 3414 1 "native" "good" 3 FALSE
"895a78dd" "lita8lita8" 1 0 1 "lita" "same" 3010 1 "native" "good" 3 FALSE
"6b2db720" "guta1guta1" 0 0 1 "guta" "same" 3729 1 "native" "good" 3 FALSE
"6b2db720" "guta1guta1" 1 0 1 "guta" "same" 3896 1 "native" "good" 3 FALSE
"6b2db720" "guta1guta8" 0 1 1 "guta" "diff" 5494 1 "native" "good" 3 FALSE
"6b2db720" "guta1guta8" 1 1 1 "guta" "diff" 3698 1 "native" "good" 3 FALSE
"6b2db720" "guta8guta1" 0 1 1 "guta" "diff" 3847 1 "native" "good" 3 FALSE
"6b2db720" "guta8guta1" 1 1 1 "guta" "diff" 3670 1 "native" "good" 3 FALSE
"6b2db720" "guta8guta8" 0 0 1 "guta" "same" 3799 1 "native" "good" 3 FALSE
"6b2db720" "guta8guta8" 1 0 1 "guta" "same" 3679 1 "native" "good" 3 FALSE
"6b2db720" "lita1lita1" 0 0 1 "lita" "same" 3610 1 "native" "good" 3 FALSE
"6b2db720" "lita1lita1" 1 0 1 "lita" "same" 3566 1 "native" "good" 3 FALSE
"6b2db720" "lita1lita8" 0 1 1 "lita" "diff" 3670 1 "native" "good" 3 FALSE
"6b2db720" "lita1lita8" 1 0 0 "lita" "diff" 3623 1 "native" "good" 3 FALSE
"6b2db720" "lita8lita1" 0 1 1 "lita" "diff" 3591 1 "native" "good" 3 FALSE
"6b2db720" "lita8lita1" 1 1 1 "lita" "diff" 3555 1 "native" "good" 3 FALSE
"6b2db720" "lita8lita8" 0 0 1 "lita" "same" 3871 1 "native" "good" 3 FALSE
"6b2db720" "lita8lita8" 1 0 1 "lita" "same" 3682 1 "native" "good" 3 FALSE
"c668ec1b" "guta1guta1" 0 0 1 "guta" "same" 4825 1 "native" "good" 1 FALSE
"c668ec1b" "guta1guta1" 1 0 1 "guta" "same" 5496 1 "native" "good" 1 FALSE
"c668ec1b" "guta1guta8" 0 1 1 "guta" "diff" 4811 1 "native" "good" 1 FALSE
"c668ec1b" "guta1guta8" 1 1 1 "guta" "diff" 4260 1 "native" "good" 1 FALSE
"c668ec1b" "guta8guta1" 0 1 1 "guta" "diff" 5754 1 "native" "good" 1 FALSE
"c668ec1b" "guta8guta1" 1 0 0 "guta" "diff" 3571 1 "native" "good" 1 FALSE
"c668ec1b" "guta8guta8" 0 0 1 "guta" "same" 5293 1 "native" "good" 1 FALSE
"c668ec1b" "guta8guta8" 1 0 1 "guta" "same" 9980 1 "native" "good" 1 FALSE
"c668ec1b" "lita1lita1" 0 0 1 "lita" "same" 3724 1 "native" "good" 1 FALSE
"c668ec1b" "lita1lita1" 1 0 1 "lita" "same" 4850 1 "native" "good" 1 FALSE
"c668ec1b" "lita1lita8" 0 0 0 "lita" "diff" 2800 1 "native" "good" 1 FALSE
"c668ec1b" "lita1lita8" 1 1 1 "lita" "diff" 5817 1 "native" "good" 1 FALSE
"c668ec1b" "lita8lita1" 0 0 0 "lita" "diff" 8356 1 "native" "good" 1 FALSE
"c668ec1b" "lita8lita1" 1 1 1 "lita" "diff" 4549 1 "native" "good" 1 FALSE
"c668ec1b" "lita8lita8" 0 0 1 "lita" "same" 10158 1 "native" "good" 1 FALSE
"c668ec1b" "lita8lita8" 1 0 1 "lita" "same" 6329 1 "native" "good" 1 FALSE
"f6f7be9f" "guta1guta1" 0 0 1 "guta" "same" 3288 0.75 "native" "good" 1 FALSE
"f6f7be9f" "guta1guta1" 1 0 1 "guta" "same" 2748 0.75 "native" "good" 1 FALSE
"f6f7be9f" "guta1guta8" 0 0 0 "guta" "diff" 3170 0.75 "native" "good" 1 FALSE
"f6f7be9f" "guta1guta8" 1 0 0 "guta" "diff" 2610 0.75 "native" "good" 1 FALSE
"f6f7be9f" "guta8guta1" 0 0 0 "guta" "diff" 3334 0.75 "native" "good" 1 FALSE
"f6f7be9f" "guta8guta1" 1 0 0 "guta" "diff" 2871 0.75 "native" "good" 1 FALSE
"f6f7be9f" "guta8guta8" 0 0 1 "guta" "same" 3542 0.75 "native" "good" 1 FALSE
"f6f7be9f" "guta8guta8" 1 0 1 "guta" "same" 2754 0.75 "native" "good" 1 FALSE
"f6f7be9f" "lita1lita1" 0 0 1 "lita" "same" 3137 0.75 "native" "good" 1 FALSE
"f6f7be9f" "lita1lita1" 1 0 1 "lita" "same" 3011 0.75 "native" "good" 1 FALSE
"f6f7be9f" "lita1lita8" 0 0 0 "lita" "diff" 3560 0.75 "native" "good" 1 FALSE
"f6f7be9f" "lita1lita8" 1 0 0 "lita" "diff" 2732 0.75 "native" "good" 1 FALSE
"f6f7be9f" "lita8lita1" 0 0 0 "lita" "diff" 3278 0.75 "native" "good" 1 FALSE
"f6f7be9f" "lita8lita1" 1 0 0 "lita" "diff" 2724 0.75 "native" "good" 1 FALSE
"f6f7be9f" "lita8lita8" 0 0 1 "lita" "same" 3580 0.75 "native" "good" 1 FALSE
"f6f7be9f" "lita8lita8" 1 0 1 "lita" "same" 2625 0.75 "native" "good" 1 FALSE
"1007de2a" "guta1guta1" 0 0 1 "guta" "same" 5564 1 "native" "good" 1 FALSE
"1007de2a" "guta1guta1" 1 0 1 "guta" "same" 4901 1 "native" "good" 1 FALSE
"1007de2a" "guta1guta8" 0 1 1 "guta" "diff" 6168 1 "native" "good" 1 FALSE
"1007de2a" "guta1guta8" 1 0 0 "guta" "diff" 4159 1 "native" "good" 1 FALSE
"1007de2a" "guta8guta1" 0 1 1 "guta" "diff" 6022 1 "native" "good" 1 FALSE
"1007de2a" "guta8guta1" 1 0 0 "guta" "diff" 3710 1 "native" "good" 1 FALSE
"1007de2a" "guta8guta8" 0 0 1 "guta" "same" 4824 1 "native" "good" 1 FALSE
"1007de2a" "guta8guta8" 1 0 1 "guta" "same" 3708 1 "native" "good" 1 FALSE
"1007de2a" "lita1lita1" 0 0 1 "lita" "same" 4483 1 "native" "good" 1 FALSE
"1007de2a" "lita1lita1" 1 0 1 "lita" "same" 3978 1 "native" "good" 1 FALSE
"1007de2a" "lita1lita8" 0 0 0 "lita" "diff" 7399 1 "native" "good" 1 FALSE
"1007de2a" "lita1lita8" 1 0 0 "lita" "diff" 3788 1 "native" "good" 1 FALSE
"1007de2a" "lita8lita1" 0 1 1 "lita" "diff" 5224 1 "native" "good" 1 FALSE
"1007de2a" "lita8lita1" 1 0 0 "lita" "diff" 4318 1 "native" "good" 1 FALSE
"1007de2a" "lita8lita8" 0 0 1 "lita" "same" 5833 1 "native" "good" 1 FALSE
"1007de2a" "lita8lita8" 1 0 1 "lita" "same" 3962 1 "native" "good" 1 FALSE
"9265f070" "guta1guta1" 0 0 1 "guta" "same" 3330 1 "native" "good" 1 FALSE
"9265f070" "guta1guta1" 1 0 1 "guta" "same" 3196 1 "native" "good" 1 FALSE
"9265f070" "guta1guta8" 0 0 0 "guta" "diff" 4917 1 "native" "good" 1 FALSE
"9265f070" "guta1guta8" 1 0 0 "guta" "diff" 2339 1 "native" "good" 1 FALSE
"9265f070" "guta8guta1" 0 1 1 "guta" "diff" 3559 1 "native" "good" 1 FALSE
"9265f070" "guta8guta1" 1 0 0 "guta" "diff" 2821 1 "native" "good" 1 FALSE
"9265f070" "guta8guta8" 0 0 1 "guta" "same" 3527 1 "native" "good" 1 FALSE
"9265f070" "guta8guta8" 1 0 1 "guta" "same" 2946 1 "native" "good" 1 FALSE
"9265f070" "lita1lita1" 0 0 1 "lita" "same" 3593 1 "native" "good" 1 FALSE
"9265f070" "lita1lita1" 1 0 1 "lita" "same" 2786 1 "native" "good" 1 FALSE
"9265f070" "lita1lita8" 0 1 1 "lita" "diff" 3857 1 "native" "good" 1 FALSE
"9265f070" "lita1lita8" 1 0 0 "lita" "diff" 2709 1 "native" "good" 1 FALSE
"9265f070" "lita8lita1" 0 0 0 "lita" "diff" 4002 1 "native" "good" 1 FALSE
"9265f070" "lita8lita1" 1 0 0 "lita" "diff" 2669 1 "native" "good" 1 FALSE
"9265f070" "lita8lita8" 0 0 1 "lita" "same" 3328 1 "native" "good" 1 FALSE
"9265f070" "lita8lita8" 1 1 0 "lita" "same" 2526 1 "native" "good" 1 FALSE
"426fa654" "guta1guta1" 0 0 1 "guta" "same" 3188 1 "native" "good" 1 FALSE
"426fa654" "guta1guta1" 1 0 1 "guta" "same" 2411 1 "native" "good" 1 FALSE
"426fa654" "guta1guta8" 0 1 1 "guta" "diff" 3285 1 "native" "good" 1 FALSE
"426fa654" "guta1guta8" 1 0 0 "guta" "diff" 3416 1 "native" "good" 1 FALSE
"426fa654" "guta8guta1" 0 1 1 "guta" "diff" 3381 1 "native" "good" 1 FALSE
"426fa654" "guta8guta1" 1 0 0 "guta" "diff" 3191 1 "native" "good" 1 FALSE
"426fa654" "guta8guta8" 0 0 1 "guta" "same" 2934 1 "native" "good" 1 FALSE
"426fa654" "guta8guta8" 1 0 1 "guta" "same" 2699 1 "native" "good" 1 FALSE
"426fa654" "lita1lita1" 0 0 1 "lita" "same" 3299 1 "native" "good" 1 FALSE
"426fa654" "lita1lita1" 1 0 1 "lita" "same" 2811 1 "native" "good" 1 FALSE
"426fa654" "lita1lita8" 0 1 1 "lita" "diff" 3511 1 "native" "good" 1 FALSE
"426fa654" "lita1lita8" 1 0 0 "lita" "diff" 2682 1 "native" "good" 1 FALSE
"426fa654" "lita8lita1" 0 1 1 "lita" "diff" 3011 1 "native" "good" 1 FALSE
"426fa654" "lita8lita1" 1 1 1 "lita" "diff" 3168 1 "native" "good" 1 FALSE
"426fa654" "lita8lita8" 0 0 1 "lita" "same" 3198 1 "native" "good" 1 FALSE
"426fa654" "lita8lita8" 1 0 1 "lita" "same" 2714 1 "native" "good" 1 FALSE
"20970b15" "guta1guta1" 0 0 1 "guta" "same" 3801 1 "native" "good" 1 FALSE
"20970b15" "guta1guta1" 1 0 1 "guta" "same" 2993 1 "native" "good" 1 FALSE
"20970b15" "guta1guta8" 0 1 1 "guta" "diff" 3393 1 "native" "good" 1 FALSE
"20970b15" "guta1guta8" 1 0 0 "guta" "diff" 3744 1 "native" "good" 1 FALSE
"20970b15" "guta8guta1" 0 1 1 "guta" "diff" 4027 1 "native" "good" 1 FALSE
"20970b15" "guta8guta1" 1 0 0 "guta" "diff" 3063 1 "native" "good" 1 FALSE
"20970b15" "guta8guta8" 0 0 1 "guta" "same" 3922 1 "native" "good" 1 FALSE
"20970b15" "guta8guta8" 1 0 1 "guta" "same" 2878 1 "native" "good" 1 FALSE
"20970b15" "lita1lita1" 0 0 1 "lita" "same" 3207 1 "native" "good" 1 FALSE
"20970b15" "lita1lita1" 1 0 1 "lita" "same" 2791 1 "native" "good" 1 FALSE
"20970b15" "lita1lita8" 0 1 1 "lita" "diff" 4010 1 "native" "good" 1 FALSE
"20970b15" "lita1lita8" 1 0 0 "lita" "diff" 3407 1 "native" "good" 1 FALSE
"20970b15" "lita8lita1" 0 1 1 "lita" "diff" 4080 1 "native" "good" 1 FALSE
"20970b15" "lita8lita1" 1 0 0 "lita" "diff" 3204 1 "native" "good" 1 FALSE
"20970b15" "lita8lita8" 0 0 1 "lita" "same" 3569 1 "native" "good" 1 FALSE
"20970b15" "lita8lita8" 1 0 1 "lita" "same" 2822 1 "native" "good" 1 FALSE
"7dcfa375" "guta1guta1" 0 0 1 "guta" "same" 3231 1 "native" "good" 2 FALSE
"7dcfa375" "guta1guta1" 1 0 1 "guta" "same" 2410 1 "native" "good" 2 FALSE
"7dcfa375" "guta1guta8" 0 0 0 "guta" "diff" 3102 1 "native" "good" 2 FALSE
"7dcfa375" "guta1guta8" 1 0 0 "guta" "diff" 2559 1 "native" "good" 2 FALSE
"7dcfa375" "guta8guta1" 0 0 0 "guta" "diff" 4043 1 "native" "good" 2 FALSE
"7dcfa375" "guta8guta1" 1 0 0 "guta" "diff" 2563 1 "native" "good" 2 FALSE
"7dcfa375" "guta8guta8" 0 0 1 "guta" "same" 3337 1 "native" "good" 2 FALSE
"7dcfa375" "guta8guta8" 1 0 1 "guta" "same" 2449 1 "native" "good" 2 FALSE
"7dcfa375" "lita1lita1" 0 0 1 "lita" "same" 3447 1 "native" "good" 2 FALSE
"7dcfa375" "lita1lita1" 1 1 0 "lita" "same" 3275 1 "native" "good" 2 FALSE
"7dcfa375" "lita1lita8" 0 0 0 "lita" "diff" 3052 1 "native" "good" 2 FALSE
"7dcfa375" "lita1lita8" 1 0 0 "lita" "diff" 2736 1 "native" "good" 2 FALSE
"7dcfa375" "lita8lita1" 0 0 0 "lita" "diff" 3624 1 "native" "good" 2 FALSE
"7dcfa375" "lita8lita1" 1 0 0 "lita" "diff" 2836 1 "native" "good" 2 FALSE
"7dcfa375" "lita8lita8" 0 0 1 "lita" "same" 3087 1 "native" "good" 2 FALSE
"7dcfa375" "lita8lita8" 1 0 1 "lita" "same" 3841 1 "native" "good" 2 FALSE
"f303343c" "guta1guta1" 0 0 1 "guta" "same" 3364 1 "native" "good" 2 FALSE
"f303343c" "guta1guta1" 1 0 1 "guta" "same" 3335 1 "native" "good" 2 FALSE
"f303343c" "guta1guta8" 0 0 0 "guta" "diff" 3829 1 "native" "good" 2 FALSE
"f303343c" "guta1guta8" 1 1 1 "guta" "diff" 3677 1 "native" "good" 2 FALSE
"f303343c" "guta8guta1" 0 0 0 "guta" "diff" 3804 1 "native" "good" 2 FALSE
"f303343c" "guta8guta1" 1 1 1 "guta" "diff" 3329 1 "native" "good" 2 FALSE
"f303343c" "guta8guta8" 0 0 1 "guta" "same" 3792 1 "native" "good" 2 FALSE
"f303343c" "guta8guta8" 1 1 0 "guta" "same" 3329 1 "native" "good" 2 FALSE
"f303343c" "lita1lita1" 0 0 1 "lita" "same" 3422 1 "native" "good" 2 FALSE
"f303343c" "lita1lita1" 1 0 1 "lita" "same" 3455 1 "native" "good" 2 FALSE
"f303343c" "lita1lita8" 0 1 1 "lita" "diff" 3653 1 "native" "good" 2 FALSE
"f303343c" "lita1lita8" 1 0 0 "lita" "diff" 4457 1 "native" "good" 2 FALSE
"f303343c" "lita8lita1" 0 1 1 "lita" "diff" 4394 1 "native" "good" 2 FALSE
"f303343c" "lita8lita1" 1 0 0 "lita" "diff" 2971 1 "native" "good" 2 FALSE
"f303343c" "lita8lita8" 0 0 1 "lita" "same" 3585 1 "native" "good" 2 FALSE
"f303343c" "lita8lita8" 1 0 1 "lita" "same" 3069 1 "native" "good" 2 FALSE
"771b5ce7" "guta1guta1" 0 0 1 "guta" "same" 2768 1 "native" "good" 2 FALSE
"771b5ce7" "guta1guta1" 1 0 1 "guta" "same" 2396 1 "native" "good" 2 FALSE
"771b5ce7" "guta1guta8" 0 0 0 "guta" "diff" 2987 1 "native" "good" 2 FALSE
"771b5ce7" "guta1guta8" 1 0 0 "guta" "diff" 2414 1 "native" "good" 2 FALSE
"771b5ce7" "guta8guta1" 0 0 0 "guta" "diff" 3206 1 "native" "good" 2 FALSE
"771b5ce7" "guta8guta1" 1 0 0 "guta" "diff" 2627 1 "native" "good" 2 FALSE
"771b5ce7" "guta8guta8" 0 0 1 "guta" "same" 2876 1 "native" "good" 2 FALSE
"771b5ce7" "guta8guta8" 1 0 1 "guta" "same" 2039 1 "native" "good" 2 FALSE
"771b5ce7" "lita1lita1" 0 0 1 "lita" "same" 3041 1 "native" "good" 2 FALSE
"771b5ce7" "lita1lita1" 1 0 1 "lita" "same" 2164 1 "native" "good" 2 FALSE
"771b5ce7" "lita1lita8" 0 0 0 "lita" "diff" 2552 1 "native" "good" 2 FALSE
"771b5ce7" "lita1lita8" 1 0 0 "lita" "diff" 2190 1 "native" "good" 2 FALSE
"771b5ce7" "lita8lita1" 0 0 0 "lita" "diff" 3140 1 "native" "good" 2 FALSE
"771b5ce7" "lita8lita1" 1 0 0 "lita" "diff" 2349 1 "native" "good" 2 FALSE
"771b5ce7" "lita8lita8" 0 0 1 "lita" "same" 2960 1 "native" "good" 2 FALSE
"771b5ce7" "lita8lita8" 1 0 1 "lita" "same" 2327 1 "native" "good" 2 FALSE
"d25f88ab" "guta1guta1" 0 0 1 "guta" "same" 3927 1 "native" "good" 2 FALSE
"d25f88ab" "guta1guta1" 1 0 1 "guta" "same" 2993 1 "native" "good" 2 FALSE
"d25f88ab" "guta1guta8" 0 0 0 "guta" "diff" 3985 1 "native" "good" 2 FALSE
"d25f88ab" "guta1guta8" 1 0 0 "guta" "diff" 2849 1 "native" "good" 2 FALSE
"d25f88ab" "guta8guta1" 0 0 0 "guta" "diff" 3865 1 "native" "good" 2 FALSE
"d25f88ab" "guta8guta1" 1 0 0 "guta" "diff" 3281 1 "native" "good" 2 FALSE
"d25f88ab" "guta8guta8" 0 0 1 "guta" "same" 3915 1 "native" "good" 2 FALSE
"d25f88ab" "guta8guta8" 1 0 1 "guta" "same" 3194 1 "native" "good" 2 FALSE
"d25f88ab" "lita1lita1" 0 0 1 "lita" "same" 4128 1 "native" "good" 2 FALSE
"d25f88ab" "lita1lita1" 1 0 1 "lita" "same" 2625 1 "native" "good" 2 FALSE
"d25f88ab" "lita1lita8" 0 0 0 "lita" "diff" 3429 1 "native" "good" 2 FALSE
"d25f88ab" "lita1lita8" 1 0 0 "lita" "diff" 2720 1 "native" "good" 2 FALSE
"d25f88ab" "lita8lita1" 0 0 0 "lita" "diff" 3578 1 "native" "good" 2 FALSE
"d25f88ab" "lita8lita1" 1 0 0 "lita" "diff" 3032 1 "native" "good" 2 FALSE
"d25f88ab" "lita8lita8" 0 0 1 "lita" "same" 3145 1 "native" "good" 2 FALSE
"d25f88ab" "lita8lita8" 1 0 1 "lita" "same" 2908 1 "native" "good" 2 FALSE
"924c7fd2" "guta1guta1" 0 0 1 "guta" "same" 3831 1 "native" "good" 2 FALSE
"924c7fd2" "guta1guta1" 1 0 1 "guta" "same" 4686 1 "native" "good" 2 FALSE
"924c7fd2" "guta1guta8" 0 0 0 "guta" "diff" 6994 1 "native" "good" 2 FALSE
"924c7fd2" "guta1guta8" 1 1 1 "guta" "diff" 3120 1 "native" "good" 2 FALSE
"924c7fd2" "guta8guta1" 0 1 1 "guta" "diff" 4258 1 "native" "good" 2 FALSE
"924c7fd2" "guta8guta1" 1 1 1 "guta" "diff" 3198 1 "native" "good" 2 FALSE
"924c7fd2" "guta8guta8" 0 0 1 "guta" "same" 4579 1 "native" "good" 2 FALSE
"924c7fd2" "guta8guta8" 1 0 1 "guta" "same" 3219 1 "native" "good" 2 FALSE
"924c7fd2" "lita1lita1" 0 1 0 "lita" "same" 5374 1 "native" "good" 2 FALSE
"924c7fd2" "lita1lita1" 1 0 1 "lita" "same" 3162 1 "native" "good" 2 FALSE
"924c7fd2" "lita1lita8" 0 1 1 "lita" "diff" 5024 1 "native" "good" 2 FALSE
"924c7fd2" "lita1lita8" 1 1 1 "lita" "diff" 3212 1 "native" "good" 2 FALSE
"924c7fd2" "lita8lita1" 0 0 0 "lita" "diff" 4505 1 "native" "good" 2 FALSE
"924c7fd2" "lita8lita1" 1 1 1 "lita" "diff" 3268 1 "native" "good" 2 FALSE
"924c7fd2" "lita8lita8" 0 0 1 "lita" "same" 4358 1 "native" "good" 2 FALSE
"924c7fd2" "lita8lita8" 1 0 1 "lita" "same" 3507 1 "native" "good" 2 FALSE
"e964eff8" "guta1guta1" 0 0 1 "guta" "same" 5004 1 "native" "good" 2 FALSE
"e964eff8" "guta1guta1" 1 0 1 "guta" "same" 3585 1 "native" "good" 2 FALSE
"e964eff8" "guta1guta8" 0 1 1 "guta" "diff" 5012 1 "native" "good" 2 FALSE
"e964eff8" "guta1guta8" 1 1 1 "guta" "diff" 3916 1 "native" "good" 2 FALSE
"e964eff8" "guta8guta1" 0 1 1 "guta" "diff" 7120 1 "native" "good" 2 FALSE
"e964eff8" "guta8guta1" 1 1 1 "guta" "diff" 4120 1 "native" "good" 2 FALSE
"e964eff8" "guta8guta8" 0 0 1 "guta" "same" 5335 1 "native" "good" 2 FALSE
"e964eff8" "guta8guta8" 1 0 1 "guta" "same" 4957 1 "native" "good" 2 FALSE
"e964eff8" "lita1lita1" 0 0 1 "lita" "same" 4886 1 "native" "good" 2 FALSE
"e964eff8" "lita1lita1" 1 0 1 "lita" "same" 3401 1 "native" "good" 2 FALSE
"e964eff8" "lita1lita8" 0 1 1 "lita" "diff" 4926 1 "native" "good" 2 FALSE
"e964eff8" "lita1lita8" 1 1 1 "lita" "diff" 4674 1 "native" "good" 2 FALSE
"e964eff8" "lita8lita1" 0 1 1 "lita" "diff" 6846 1 "native" "good" 2 FALSE
"e964eff8" "lita8lita1" 1 1 1 "lita" "diff" 4252 1 "native" "good" 2 FALSE
"e964eff8" "lita8lita8" 0 0 1 "lita" "same" 4860 1 "native" "good" 2 FALSE
"e964eff8" "lita8lita8" 1 0 1 "lita" "same" 4852 1 "native" "good" 2 FALSE
"9a214fb4" "guta1guta1" 0 0 1 "guta" "same" 3430 1 "native" "good" 2 FALSE
"9a214fb4" "guta1guta1" 1 0 1 "guta" "same" 3388 1 "native" "good" 2 FALSE
"9a214fb4" "guta1guta8" 0 0 0 "guta" "diff" 4227 1 "native" "good" 2 FALSE
"9a214fb4" "guta1guta8" 1 0 0 "guta" "diff" 2718 1 "native" "good" 2 FALSE
"9a214fb4" "guta8guta1" 0 0 0 "guta" "diff" 3887 1 "native" "good" 2 FALSE
"9a214fb4" "guta8guta1" 1 0 0 "guta" "diff" 2747 1 "native" "good" 2 FALSE
"9a214fb4" "guta8guta8" 0 0 1 "guta" "same" 3591 1 "native" "good" 2 FALSE
"9a214fb4" "guta8guta8" 1 0 1 "guta" "same" 2694 1 "native" "good" 2 FALSE
"9a214fb4" "lita1lita1" 0 0 1 "lita" "same" 3791 1 "native" "good" 2 FALSE
"9a214fb4" "lita1lita1" 1 0 1 "lita" "same" 2841 1 "native" "good" 2 FALSE
"9a214fb4" "lita1lita8" 0 0 0 "lita" "diff" 3463 1 "native" "good" 2 FALSE
"9a214fb4" "lita1lita8" 1 0 0 "lita" "diff" 2781 1 "native" "good" 2 FALSE
"9a214fb4" "lita8lita1" 0 0 0 "lita" "diff" 6769 1 "native" "good" 2 FALSE
"9a214fb4" "lita8lita1" 1 0 0 "lita" "diff" 2784 1 "native" "good" 2 FALSE
"9a214fb4" "lita8lita8" 0 0 1 "lita" "same" 4165 1 "native" "good" 2 FALSE
"9a214fb4" "lita8lita8" 1 0 1 "lita" "same" 2788 1 "native" "good" 2 FALSE
"41b1ee03" "guta1guta1" 0 0 1 "guta" "same" 4055 1 "native" "good" 2 FALSE
"41b1ee03" "guta1guta1" 1 1 0 "guta" "same" 3078 1 "native" "good" 2 FALSE
"41b1ee03" "guta1guta8" 0 0 0 "guta" "diff" 3239 1 "native" "good" 2 FALSE
"41b1ee03" "guta1guta8" 1 1 1 "guta" "diff" 4577 1 "native" "good" 2 FALSE
"41b1ee03" "guta8guta1" 0 0 0 "guta" "diff" 3127 1 "native" "good" 2 FALSE
"41b1ee03" "guta8guta1" 1 0 0 "guta" "diff" 3196 1 "native" "good" 2 FALSE
"41b1ee03" "guta8guta8" 0 0 1 "guta" "same" 3282 1 "native" "good" 2 FALSE
"41b1ee03" "guta8guta8" 1 1 0 "guta" "same" 3113 1 "native" "good" 2 FALSE
"41b1ee03" "lita1lita1" 0 0 1 "lita" "same" 3691 1 "native" "good" 2 FALSE
"41b1ee03" "lita1lita1" 1 0 1 "lita" "same" 3614 1 "native" "good" 2 FALSE
"41b1ee03" "lita1lita8" 0 1 1 "lita" "diff" 3121 1 "native" "good" 2 FALSE
"41b1ee03" "lita1lita8" 1 0 0 "lita" "diff" 4392 1 "native" "good" 2 FALSE
"41b1ee03" "lita8lita1" 0 1 1 "lita" "diff" 3459 1 "native" "good" 2 FALSE
"41b1ee03" "lita8lita1" 1 1 1 "lita" "diff" 3704 1 "native" "good" 2 FALSE
"41b1ee03" "lita8lita8" 0 0 1 "lita" "same" 2777 1 "native" "good" 2 FALSE
"41b1ee03" "lita8lita8" 1 0 1 "lita" "same" 3383 1 "native" "good" 2 FALSE
"b2bd100d" "guta1guta1" 0 1 0 "guta" "same" 3038 0.875 "native" "good" 2 FALSE
"b2bd100d" "guta1guta1" 1 0 1 "guta" "same" 2931 0.875 "native" "good" 2 FALSE
"b2bd100d" "guta1guta8" 0 1 1 "guta" "diff" 3321 0.875 "native" "good" 2 FALSE
"b2bd100d" "guta1guta8" 1 0 0 "guta" "diff" 3024 0.875 "native" "good" 2 FALSE
"b2bd100d" "guta8guta1" 0 1 1 "guta" "diff" 3427 0.875 "native" "good" 2 FALSE
"b2bd100d" "guta8guta1" 1 0 0 "guta" "diff" 2689 0.875 "native" "good" 2 FALSE
"b2bd100d" "guta8guta8" 0 0 1 "guta" "same" 3355 0.875 "native" "good" 2 FALSE
"b2bd100d" "guta8guta8" 1 0 1 "guta" "same" 2873 0.875 "native" "good" 2 FALSE
"b2bd100d" "lita1lita1" 0 0 1 "lita" "same" 4843 0.875 "native" "good" 2 FALSE
"b2bd100d" "lita1lita1" 1 0 1 "lita" "same" 2782 0.875 "native" "good" 2 FALSE
"b2bd100d" "lita1lita8" 0 0 0 "lita" "diff" 3849 0.875 "native" "good" 2 FALSE
"b2bd100d" "lita1lita8" 1 0 0 "lita" "diff" 3375 0.875 "native" "good" 2 FALSE
"b2bd100d" "lita8lita1" 0 1 1 "lita" "diff" 3728 0.875 "native" "good" 2 FALSE
"b2bd100d" "lita8lita1" 1 0 0 "lita" "diff" 2927 0.875 "native" "good" 2 FALSE
"b2bd100d" "lita8lita8" 0 0 1 "lita" "same" 3429 0.875 "native" "good" 2 FALSE
"b2bd100d" "lita8lita8" 1 0 1 "lita" "same" 2776 0.875 "native" "good" 2 FALSE
"d2f1b7cd" "guta1guta1" 0 0 1 "guta" "same" 3948 1 "native" "good" 2 FALSE
"d2f1b7cd" "guta1guta1" 1 0 1 "guta" "same" 3514 1 "native" "good" 2 FALSE
"d2f1b7cd" "guta1guta8" 0 1 1 "guta" "diff" 4842 1 "native" "good" 2 FALSE
"d2f1b7cd" "guta1guta8" 1 1 1 "guta" "diff" 2906 1 "native" "good" 2 FALSE
"d2f1b7cd" "guta8guta1" 0 1 1 "guta" "diff" 5080 1 "native" "good" 2 FALSE
"d2f1b7cd" "guta8guta1" 1 1 1 "guta" "diff" 3257 1 "native" "good" 2 FALSE
"d2f1b7cd" "guta8guta8" 0 0 1 "guta" "same" 3098 1 "native" "good" 2 FALSE
"d2f1b7cd" "guta8guta8" 1 0 1 "guta" "same" 3132 1 "native" "good" 2 FALSE
"d2f1b7cd" "lita1lita1" 0 0 1 "lita" "same" 3015 1 "native" "good" 2 FALSE
"d2f1b7cd" "lita1lita1" 1 0 1 "lita" "same" 2808 1 "native" "good" 2 FALSE
"d2f1b7cd" "lita1lita8" 0 1 1 "lita" "diff" 3656 1 "native" "good" 2 FALSE
"d2f1b7cd" "lita1lita8" 1 1 1 "lita" "diff" 3451 1 "native" "good" 2 FALSE
"d2f1b7cd" "lita8lita1" 0 0 0 "lita" "diff" 5208 1 "native" "good" 2 FALSE
"d2f1b7cd" "lita8lita1" 1 1 1 "lita" "diff" 4050 1 "native" "good" 2 FALSE
"d2f1b7cd" "lita8lita8" 0 0 1 "lita" "same" 3226 1 "native" "good" 2 FALSE
"d2f1b7cd" "lita8lita8" 1 0 1 "lita" "same" 3059 1 "native" "good" 2 FALSE
"1691422f" "guta1guta1" 0 0 1 "guta" "same" 4746 1 "native" "good" 2 FALSE
"1691422f" "guta1guta1" 1 1 0 "guta" "same" 5319 1 "native" "good" 2 FALSE
"1691422f" "guta1guta8" 0 1 1 "guta" "diff" 4404 1 "native" "good" 2 FALSE
"1691422f" "guta1guta8" 1 1 1 "guta" "diff" 4575 1 "native" "good" 2 FALSE
"1691422f" "guta8guta1" 0 1 1 "guta" "diff" 4613 1 "native" "good" 2 FALSE
"1691422f" "guta8guta1" 1 1 1 "guta" "diff" 4014 1 "native" "good" 2 FALSE
"1691422f" "guta8guta8" 0 0 1 "guta" "same" 4013 1 "native" "good" 2 FALSE
"1691422f" "guta8guta8" 1 0 1 "guta" "same" 4652 1 "native" "good" 2 FALSE
"1691422f" "lita1lita1" 0 0 1 "lita" "same" 4324 1 "native" "good" 2 FALSE
"1691422f" "lita1lita1" 1 0 1 "lita" "same" 4341 1 "native" "good" 2 FALSE
"1691422f" "lita1lita8" 0 1 1 "lita" "diff" 4971 1 "native" "good" 2 FALSE
"1691422f" "lita1lita8" 1 1 1 "lita" "diff" 4057 1 "native" "good" 2 FALSE
"1691422f" "lita8lita1" 0 1 1 "lita" "diff" 4182 1 "native" "good" 2 FALSE
"1691422f" "lita8lita1" 1 1 1 "lita" "diff" 4236 1 "native" "good" 2 FALSE
"1691422f" "lita8lita8" 0 0 1 "lita" "same" 4281 1 "native" "good" 2 FALSE
"1691422f" "lita8lita8" 1 1 0 "lita" "same" 4354 1 "native" "good" 2 FALSE
"b6d89729" "guta1guta1" 0 0 1 "guta" "same" 2681 1 "native" "good" 2 FALSE
"b6d89729" "guta1guta1" 1 0 1 "guta" "same" 2107 1 "native" "good" 2 FALSE
"b6d89729" "guta1guta8" 0 0 0 "guta" "diff" 3630 1 "native" "good" 2 FALSE
"b6d89729" "guta1guta8" 1 0 0 "guta" "diff" 2489 1 "native" "good" 2 FALSE
"b6d89729" "guta8guta1" 0 0 0 "guta" "diff" 2735 1 "native" "good" 2 FALSE
"b6d89729" "guta8guta1" 1 0 0 "guta" "diff" 2202 1 "native" "good" 2 FALSE
"b6d89729" "guta8guta8" 0 0 1 "guta" "same" 3176 1 "native" "good" 2 FALSE
"b6d89729" "guta8guta8" 1 0 1 "guta" "same" 2808 1 "native" "good" 2 FALSE
"b6d89729" "lita1lita1" 0 0 1 "lita" "same" 3012 1 "native" "good" 2 FALSE
"b6d89729" "lita1lita1" 1 0 1 "lita" "same" 2722 1 "native" "good" 2 FALSE
"b6d89729" "lita1lita8" 0 0 0 "lita" "diff" 4772 1 "native" "good" 2 FALSE
"b6d89729" "lita1lita8" 1 0 0 "lita" "diff" 3159 1 "native" "good" 2 FALSE
"b6d89729" "lita8lita1" 0 0 0 "lita" "diff" 2530 1 "native" "good" 2 FALSE
"b6d89729" "lita8lita1" 1 0 0 "lita" "diff" 3728 1 "native" "good" 2 FALSE
"b6d89729" "lita8lita8" 0 0 1 "lita" "same" 3191 1 "native" "good" 2 FALSE
"b6d89729" "lita8lita8" 1 0 1 "lita" "same" 5061 1 "native" "good" 2 FALSE
"6f0ce9ab" "guta1guta1" 0 0 1 "guta" "same" 2864 1 "native" "good" 2 FALSE
"6f0ce9ab" "guta1guta1" 1 0 1 "guta" "same" 2552 1 "native" "good" 2 FALSE
"6f0ce9ab" "guta1guta8" 0 0 0 "guta" "diff" 3455 1 "native" "good" 2 FALSE
"6f0ce9ab" "guta1guta8" 1 0 0 "guta" "diff" 2569 1 "native" "good" 2 FALSE
"6f0ce9ab" "guta8guta1" 0 0 0 "guta" "diff" 3000 1 "native" "good" 2 FALSE
"6f0ce9ab" "guta8guta1" 1 0 0 "guta" "diff" 2488 1 "native" "good" 2 FALSE
"6f0ce9ab" "guta8guta8" 0 0 1 "guta" "same" 2791 1 "native" "good" 2 FALSE
"6f0ce9ab" "guta8guta8" 1 0 1 "guta" "same" 2584 1 "native" "good" 2 FALSE
"6f0ce9ab" "lita1lita1" 0 0 1 "lita" "same" 3000 1 "native" "good" 2 FALSE
"6f0ce9ab" "lita1lita1" 1 0 1 "lita" "same" 2712 1 "native" "good" 2 FALSE
"6f0ce9ab" "lita1lita8" 0 0 0 "lita" "diff" 2801 1 "native" "good" 2 FALSE
"6f0ce9ab" "lita1lita8" 1 0 0 "lita" "diff" 2249 1 "native" "good" 2 FALSE
"6f0ce9ab" "lita8lita1" 0 0 0 "lita" "diff" 3778 1 "native" "good" 2 FALSE
"6f0ce9ab" "lita8lita1" 1 0 0 "lita" "diff" 2473 1 "native" "good" 2 FALSE
"6f0ce9ab" "lita8lita8" 0 0 1 "lita" "same" 2880 1 "native" "good" 2 FALSE
"6f0ce9ab" "lita8lita8" 1 0 1 "lita" "same" 2616 1 "native" "good" 2 FALSE
"3be674e1" "guta1guta1" 0 0 1 "guta" "same" 3836 1 "native" "good" 2 FALSE
"3be674e1" "guta1guta1" 1 0 1 "guta" "same" 3407 1 "native" "good" 2 FALSE
"3be674e1" "guta1guta8" 0 1 1 "guta" "diff" 4205 1 "native" "good" 2 FALSE
"3be674e1" "guta1guta8" 1 1 1 "guta" "diff" 12184 1 "native" "good" 2 FALSE
"3be674e1" "guta8guta1" 0 0 0 "guta" "diff" 5681 1 "native" "good" 2 FALSE
"3be674e1" "guta8guta1" 1 1 1 "guta" "diff" 3965 1 "native" "good" 2 FALSE
"3be674e1" "guta8guta8" 0 0 1 "guta" "same" 4398 1 "native" "good" 2 FALSE
"3be674e1" "guta8guta8" 1 0 1 "guta" "same" 3541 1 "native" "good" 2 FALSE
"3be674e1" "lita1lita1" 0 0 1 "lita" "same" 4062 1 "native" "good" 2 FALSE
"3be674e1" "lita1lita1" 1 0 1 "lita" "same" 3340 1 "native" "good" 2 FALSE
"3be674e1" "lita1lita8" 0 1 1 "lita" "diff" 3755 1 "native" "good" 2 FALSE
"3be674e1" "lita1lita8" 1 0 0 "lita" "diff" 4115 1 "native" "good" 2 FALSE
"3be674e1" "lita8lita1" 0 1 1 "lita" "diff" 4838 1 "native" "good" 2 FALSE
"3be674e1" "lita8lita1" 1 0 0 "lita" "diff" 4260 1 "native" "good" 2 FALSE
"3be674e1" "lita8lita8" 0 0 1 "lita" "same" 3560 1 "native" "good" 2 FALSE
"3be674e1" "lita8lita8" 1 0 1 "lita" "same" 3464 1 "native" "good" 2 FALSE
"dde7f991" "guta1guta1" 0 0 1 "guta" "same" 3753 1 "native" "good" 2 FALSE
"dde7f991" "guta1guta1" 1 0 1 "guta" "same" 2742 1 "native" "good" 2 FALSE
"dde7f991" "guta1guta8" 0 0 0 "guta" "diff" 3790 1 "native" "good" 2 FALSE
"dde7f991" "guta1guta8" 1 0 0 "guta" "diff" 3786 1 "native" "good" 2 FALSE
"dde7f991" "guta8guta1" 0 0 0 "guta" "diff" 4873 1 "native" "good" 2 FALSE
"dde7f991" "guta8guta1" 1 0 0 "guta" "diff" 3434 1 "native" "good" 2 FALSE
"dde7f991" "guta8guta8" 0 0 1 "guta" "same" 3564 1 "native" "good" 2 FALSE
"dde7f991" "guta8guta8" 1 0 1 "guta" "same" 2755 1 "native" "good" 2 FALSE
"dde7f991" "lita1lita1" 0 0 1 "lita" "same" 3541 1 "native" "good" 2 FALSE
"dde7f991" "lita1lita1" 1 0 1 "lita" "same" 2828 1 "native" "good" 2 FALSE
"dde7f991" "lita1lita8" 0 0 0 "lita" "diff" 3478 1 "native" "good" 2 FALSE
"dde7f991" "lita1lita8" 1 0 0 "lita" "diff" 2970 1 "native" "good" 2 FALSE
"dde7f991" "lita8lita1" 0 0 0 "lita" "diff" 3738 1 "native" "good" 2 FALSE
"dde7f991" "lita8lita1" 1 0 0 "lita" "diff" 3116 1 "native" "good" 2 FALSE
"dde7f991" "lita8lita8" 0 0 1 "lita" "same" 3626 1 "native" "good" 2 FALSE
"dde7f991" "lita8lita8" 1 0 1 "lita" "same" 3379 1 "native" "good" 2 FALSE
"365406f7" "guta1guta1" 0 0 1 "guta" "same" 3089 1 "native" "good" 2 FALSE
"365406f7" "guta1guta1" 1 0 1 "guta" "same" 2127 1 "native" "good" 2 FALSE
"365406f7" "guta1guta8" 0 0 0 "guta" "diff" 2848 1 "native" "good" 2 FALSE
"365406f7" "guta1guta8" 1 0 0 "guta" "diff" 2603 1 "native" "good" 2 FALSE
"365406f7" "guta8guta1" 0 0 0 "guta" "diff" 2943 1 "native" "good" 2 FALSE
"365406f7" "guta8guta1" 1 0 0 "guta" "diff" 2150 1 "native" "good" 2 FALSE
"365406f7" "guta8guta8" 0 0 1 "guta" "same" 3215 1 "native" "good" 2 FALSE
"365406f7" "guta8guta8" 1 0 1 "guta" "same" 2122 1 "native" "good" 2 FALSE
"365406f7" "lita1lita1" 0 0 1 "lita" "same" 2602 1 "native" "good" 2 FALSE
"365406f7" "lita1lita1" 1 0 1 "lita" "same" 2355 1 "native" "good" 2 FALSE
